stimuli,practice_trial.thisRepN,practice_trial.thisTrialN,practice_trial.thisN,practice_trial.thisIndex,trials.thisRepN,trials.thisTrialN,trials.thisN,trials.thisIndex,key_resp_trial.keys,key_resp_trial.rt,date,frameRate,expName,session,participant,
stim/11_pa_hybrid_+50.wav,0,0,0,2,,,,,,,2016_Feb_09_1253,60.0481610331,beat_2AFC,001,ag,
stim/01_pa_hybrid_-50.wav,0,1,1,1,,,,,,,2016_Feb_09_1253,60.0481610331,beat_2AFC,001,ag,
stim/00_pa_hybrid_-60.wav,0,2,2,0,,,,,,,2016_Feb_09_1253,60.0481610331,beat_2AFC,001,ag,
stim/12_pa_hybrid_+60.wav,0,3,3,3,,,,,,,2016_Feb_09_1253,60.0481610331,beat_2AFC,001,ag,
stim/03_pa_hybrid_-30.wav,,,,,0,0,0,3,left,0.601258993149,2016_Feb_09_1253,60.0481610331,beat_2AFC,001,ag,
stim/10_pa_hybrid_+40.wav,,,,,0,1,1,10,right,0.484369039536,2016_Feb_09_1253,60.0481610331,beat_2AFC,001,ag,
stim/11_pa_hybrid_+50.wav,,,,,0,2,2,11,right,0.551214933395,2016_Feb_09_1253,60.0481610331,beat_2AFC,001,ag,
stim/01_pa_hybrid_-50.wav,,,,,0,3,3,1,left,0.500385046005,2016_Feb_09_1253,60.0481610331,beat_2AFC,001,ag,
stim/02_pa_hybrid_-40.wav,,,,,0,4,4,2,left,0.583694934845,2016_Feb_09_1253,60.0481610331,beat_2AFC,001,ag,
stim/08_pa_hybrid_+20.wav,,,,,0,5,5,8,right,0.334954977036,2016_Feb_09_1253,60.0481610331,beat_2AFC,001,ag,
stim/00_pa_hybrid_-60.wav,,,,,0,6,6,0,left,0.368584871292,2016_Feb_09_1253,60.0481610331,beat_2AFC,001,ag,
stim/06_pa_hybrid_+00.wav,,,,,0,7,7,6,left,0.366525173187,2016_Feb_09_1253,60.0481610331,beat_2AFC,001,ag,
stim/05_pa_hybrid_-10.wav,,,,,0,8,8,5,left,0.483732938766,2016_Feb_09_1253,60.0481610331,beat_2AFC,001,ag,
stim/12_pa_hybrid_+60.wav,,,,,0,9,9,12,right,0.335278987885,2016_Feb_09_1253,60.0481610331,beat_2AFC,001,ag,
stim/04_pa_hybrid_-20.wav,,,,,0,10,10,4,left,0.351888895035,2016_Feb_09_1253,60.0481610331,beat_2AFC,001,ag,
stim/07_pa_hybrid_+10.wav,,,,,0,11,11,7,left,0.618057012558,2016_Feb_09_1253,60.0481610331,beat_2AFC,001,ag,
stim/09_pa_hybrid_+30.wav,,,,,0,12,12,9,right,0.33341383934,2016_Feb_09_1253,60.0481610331,beat_2AFC,001,ag,
stim/11_pa_hybrid_+50.wav,,,,,1,0,13,11,right,0.484400987625,2016_Feb_09_1253,60.0481610331,beat_2AFC,001,ag,
stim/05_pa_hybrid_-10.wav,,,,,1,1,14,5,left,0.617705106735,2016_Feb_09_1253,60.0481610331,beat_2AFC,001,ag,
stim/07_pa_hybrid_+10.wav,,,,,1,2,15,7,right,0.567721128464,2016_Feb_09_1253,60.0481610331,beat_2AFC,001,ag,
stim/06_pa_hybrid_+00.wav,,,,,1,3,16,6,right,0.334138870239,2016_Feb_09_1253,60.0481610331,beat_2AFC,001,ag,
stim/02_pa_hybrid_-40.wav,,,,,1,4,17,2,left,0.483701944351,2016_Feb_09_1253,60.0481610331,beat_2AFC,001,ag,
stim/03_pa_hybrid_-30.wav,,,,,1,5,18,3,left,0.434323072433,2016_Feb_09_1253,60.0481610331,beat_2AFC,001,ag,
stim/00_pa_hybrid_-60.wav,,,,,1,6,19,0,left,0.601999044418,2016_Feb_09_1253,60.0481610331,beat_2AFC,001,ag,
stim/01_pa_hybrid_-50.wav,,,,,1,7,20,1,right,0.318561077118,2016_Feb_09_1253,60.0481610331,beat_2AFC,001,ag,
stim/04_pa_hybrid_-20.wav,,,,,1,8,21,4,left,0.409343004227,2016_Feb_09_1253,60.0481610331,beat_2AFC,001,ag,
stim/12_pa_hybrid_+60.wav,,,,,1,9,22,12,right,0.501055955887,2016_Feb_09_1253,60.0481610331,beat_2AFC,001,ag,
stim/08_pa_hybrid_+20.wav,,,,,1,10,23,8,right,0.384433984756,2016_Feb_09_1253,60.0481610331,beat_2AFC,001,ag,
stim/10_pa_hybrid_+40.wav,,,,,1,11,24,10,right,0.451178073883,2016_Feb_09_1253,60.0481610331,beat_2AFC,001,ag,
stim/09_pa_hybrid_+30.wav,,,,,1,12,25,9,right,0.417186021805,2016_Feb_09_1253,60.0481610331,beat_2AFC,001,ag,
stim/07_pa_hybrid_+10.wav,,,,,2,0,26,7,left,0.350369930267,2016_Feb_09_1253,60.0481610331,beat_2AFC,001,ag,
stim/02_pa_hybrid_-40.wav,,,,,2,1,27,2,left,0.401848077774,2016_Feb_09_1253,60.0481610331,beat_2AFC,001,ag,
stim/03_pa_hybrid_-30.wav,,,,,2,2,28,3,left,0.483573198318,2016_Feb_09_1253,60.0481610331,beat_2AFC,001,ag,
stim/10_pa_hybrid_+40.wav,,,,,2,3,29,10,right,0.433640956879,2016_Feb_09_1253,60.0481610331,beat_2AFC,001,ag,
stim/08_pa_hybrid_+20.wav,,,,,2,4,30,8,right,0.317785024643,2016_Feb_09_1253,60.0481610331,beat_2AFC,001,ag,
stim/04_pa_hybrid_-20.wav,,,,,2,5,31,4,left,0.517884969711,2016_Feb_09_1253,60.0481610331,beat_2AFC,001,ag,
stim/00_pa_hybrid_-60.wav,,,,,2,6,32,0,left,0.351088047028,2016_Feb_09_1253,60.0481610331,beat_2AFC,001,ag,
stim/01_pa_hybrid_-50.wav,,,,,2,7,33,1,left,0.668729066849,2016_Feb_09_1253,60.0481610331,beat_2AFC,001,ag,
stim/11_pa_hybrid_+50.wav,,,,,2,8,34,11,right,0.567610025406,2016_Feb_09_1253,60.0481610331,beat_2AFC,001,ag,
stim/06_pa_hybrid_+00.wav,,,,,2,9,35,6,left,0.467633962631,2016_Feb_09_1253,60.0481610331,beat_2AFC,001,ag,
stim/12_pa_hybrid_+60.wav,,,,,2,10,36,12,right,0.384578943253,2016_Feb_09_1253,60.0481610331,beat_2AFC,001,ag,
stim/05_pa_hybrid_-10.wav,,,,,2,11,37,5,left,0.567262172699,2016_Feb_09_1253,60.0481610331,beat_2AFC,001,ag,
stim/09_pa_hybrid_+30.wav,,,,,2,12,38,9,right,0.41715502739,2016_Feb_09_1253,60.0481610331,beat_2AFC,001,ag,
stim/03_pa_hybrid_-30.wav,,,,,3,0,39,3,left,0.385371208191,2016_Feb_09_1253,60.0481610331,beat_2AFC,001,ag,
stim/10_pa_hybrid_+40.wav,,,,,3,1,40,10,right,0.383502006531,2016_Feb_09_1253,60.0481610331,beat_2AFC,001,ag,
stim/02_pa_hybrid_-40.wav,,,,,3,2,41,2,left,0.450556993484,2016_Feb_09_1253,60.0481610331,beat_2AFC,001,ag,
stim/01_pa_hybrid_-50.wav,,,,,3,3,42,1,left,0.500508069992,2016_Feb_09_1253,60.0481610331,beat_2AFC,001,ag,
stim/09_pa_hybrid_+30.wav,,,,,3,4,43,9,right,0.417085886002,2016_Feb_09_1253,60.0481610331,beat_2AFC,001,ag,
stim/07_pa_hybrid_+10.wav,,,,,3,5,44,7,left,0.567679166794,2016_Feb_09_1253,60.0481610331,beat_2AFC,001,ag,
stim/05_pa_hybrid_-10.wav,,,,,3,6,45,5,left,0.534857034683,2016_Feb_09_1253,60.0481610331,beat_2AFC,001,ag,
stim/11_pa_hybrid_+50.wav,,,,,3,7,46,11,right,0.350807905197,2016_Feb_09_1253,60.0481610331,beat_2AFC,001,ag,
stim/08_pa_hybrid_+20.wav,,,,,3,8,47,8,right,0.551174879074,2016_Feb_09_1253,60.0481610331,beat_2AFC,001,ag,
stim/06_pa_hybrid_+00.wav,,,,,3,9,48,6,left,0.817826986313,2016_Feb_09_1253,60.0481610331,beat_2AFC,001,ag,
stim/00_pa_hybrid_-60.wav,,,,,3,10,49,0,left,0.499809980392,2016_Feb_09_1253,60.0481610331,beat_2AFC,001,ag,
stim/12_pa_hybrid_+60.wav,,,,,3,11,50,12,right,0.367623806,2016_Feb_09_1253,60.0481610331,beat_2AFC,001,ag,
stim/04_pa_hybrid_-20.wav,,,,,3,12,51,4,left,0.535325050354,2016_Feb_09_1253,60.0481610331,beat_2AFC,001,ag,
stim/07_pa_hybrid_+10.wav,,,,,4,0,52,7,right,0.384388208389,2016_Feb_09_1253,60.0481610331,beat_2AFC,001,ag,
stim/08_pa_hybrid_+20.wav,,,,,4,1,53,8,left,0.534588098526,2016_Feb_09_1253,60.0481610331,beat_2AFC,001,ag,
stim/12_pa_hybrid_+60.wav,,,,,4,2,54,12,right,0.418322086334,2016_Feb_09_1253,60.0481610331,beat_2AFC,001,ag,
stim/11_pa_hybrid_+50.wav,,,,,4,3,55,11,right,0.383763074875,2016_Feb_09_1253,60.0481610331,beat_2AFC,001,ag,
stim/09_pa_hybrid_+30.wav,,,,,4,4,56,9,right,0.451512098312,2016_Feb_09_1253,60.0481610331,beat_2AFC,001,ag,
stim/02_pa_hybrid_-40.wav,,,,,4,5,57,2,right,0.384283065796,2016_Feb_09_1253,60.0481610331,beat_2AFC,001,ag,
stim/03_pa_hybrid_-30.wav,,,,,4,6,58,3,left,0.335090875626,2016_Feb_09_1253,60.0481610331,beat_2AFC,001,ag,
stim/05_pa_hybrid_-10.wav,,,,,4,7,59,5,left,0.33452796936,2016_Feb_09_1253,60.0481610331,beat_2AFC,001,ag,
stim/00_pa_hybrid_-60.wav,,,,,4,8,60,0,left,0.368191003799,2016_Feb_09_1253,60.0481610331,beat_2AFC,001,ag,
stim/04_pa_hybrid_-20.wav,,,,,4,9,61,4,left,0.351155996323,2016_Feb_09_1253,60.0481610331,beat_2AFC,001,ag,
stim/10_pa_hybrid_+40.wav,,,,,4,10,62,10,right,0.31754899025,2016_Feb_09_1253,60.0481610331,beat_2AFC,001,ag,
stim/01_pa_hybrid_-50.wav,,,,,4,11,63,1,left,0.30091714859,2016_Feb_09_1253,60.0481610331,beat_2AFC,001,ag,
stim/06_pa_hybrid_+00.wav,,,,,4,12,64,6,left,0.367742061615,2016_Feb_09_1253,60.0481610331,beat_2AFC,001,ag,
