stimuli,practice_trial.thisRepN,practice_trial.thisTrialN,practice_trial.thisN,practice_trial.thisIndex,trials.thisRepN,trials.thisTrialN,trials.thisN,trials.thisIndex,key_resp_trial.keys,key_resp_trial.rt,date,frameRate,expName,session,participant,
stim/11_pa_hybrid_+50.wav,0,0,0,2,,,,,,,2016_Feb_09_1303,58.7872264083,beat_2AFC,001,CS,
stim/01_pa_hybrid_-50.wav,0,1,1,1,,,,,,,2016_Feb_09_1303,58.7872264083,beat_2AFC,001,CS,
stim/12_pa_hybrid_+60.wav,0,2,2,3,,,,,,,2016_Feb_09_1303,58.7872264083,beat_2AFC,001,CS,
stim/00_pa_hybrid_-60.wav,0,3,3,0,,,,,,,2016_Feb_09_1303,58.7872264083,beat_2AFC,001,CS,
stim/02_pa_hybrid_-40.wav,,,,,0,0,0,2,left,0.801396131516,2016_Feb_09_1303,58.7872264083,beat_2AFC,001,CS,
stim/12_pa_hybrid_+60.wav,,,,,0,1,1,12,right,0.651636838913,2016_Feb_09_1303,58.7872264083,beat_2AFC,001,CS,
stim/05_pa_hybrid_-10.wav,,,,,0,2,2,5,left,0.400436878204,2016_Feb_09_1303,58.7872264083,beat_2AFC,001,CS,
stim/06_pa_hybrid_+00.wav,,,,,0,3,3,6,left,0.634611129761,2016_Feb_09_1303,58.7872264083,beat_2AFC,001,CS,
stim/11_pa_hybrid_+50.wav,,,,,0,4,4,11,right,0.667860031128,2016_Feb_09_1303,58.7872264083,beat_2AFC,001,CS,
stim/07_pa_hybrid_+10.wav,,,,,0,5,5,7,left,0.600940942764,2016_Feb_09_1303,58.7872264083,beat_2AFC,001,CS,
stim/10_pa_hybrid_+40.wav,,,,,0,6,6,10,right,0.500338077545,2016_Feb_09_1303,58.7872264083,beat_2AFC,001,CS,
stim/08_pa_hybrid_+20.wav,,,,,0,7,7,8,right,0.884838104248,2016_Feb_09_1303,58.7872264083,beat_2AFC,001,CS,
stim/04_pa_hybrid_-20.wav,,,,,0,8,8,4,left,0.685124874115,2016_Feb_09_1303,58.7872264083,beat_2AFC,001,CS,
stim/09_pa_hybrid_+30.wav,,,,,0,9,9,9,right,0.652070045471,2016_Feb_09_1303,58.7872264083,beat_2AFC,001,CS,
stim/00_pa_hybrid_-60.wav,,,,,0,10,10,0,left,0.566946983337,2016_Feb_09_1303,58.7872264083,beat_2AFC,001,CS,
stim/03_pa_hybrid_-30.wav,,,,,0,11,11,3,left,0.450303077698,2016_Feb_09_1303,58.7872264083,beat_2AFC,001,CS,
stim/01_pa_hybrid_-50.wav,,,,,0,12,12,1,left,0.466695070267,2016_Feb_09_1303,58.7872264083,beat_2AFC,001,CS,
stim/07_pa_hybrid_+10.wav,,,,,1,0,13,7,left,0.384171962738,2016_Feb_09_1303,58.7872264083,beat_2AFC,001,CS,
stim/04_pa_hybrid_-20.wav,,,,,1,1,14,4,left,0.450695037842,2016_Feb_09_1303,58.7872264083,beat_2AFC,001,CS,
stim/11_pa_hybrid_+50.wav,,,,,1,2,15,11,right,0.483007907867,2016_Feb_09_1303,58.7872264083,beat_2AFC,001,CS,
stim/09_pa_hybrid_+30.wav,,,,,1,3,16,9,right,0.367259025574,2016_Feb_09_1303,58.7872264083,beat_2AFC,001,CS,
stim/03_pa_hybrid_-30.wav,,,,,1,4,17,3,left,0.418586969376,2016_Feb_09_1303,58.7872264083,beat_2AFC,001,CS,
stim/01_pa_hybrid_-50.wav,,,,,1,5,18,1,left,0.418300867081,2016_Feb_09_1303,58.7872264083,beat_2AFC,001,CS,
stim/02_pa_hybrid_-40.wav,,,,,1,6,19,2,left,0.500249147415,2016_Feb_09_1303,58.7872264083,beat_2AFC,001,CS,
stim/08_pa_hybrid_+20.wav,,,,,1,7,20,8,right,0.485316991806,2016_Feb_09_1303,58.7872264083,beat_2AFC,001,CS,
stim/10_pa_hybrid_+40.wav,,,,,1,8,21,10,left,0.317658901215,2016_Feb_09_1303,58.7872264083,beat_2AFC,001,CS,
stim/12_pa_hybrid_+60.wav,,,,,1,9,22,12,right,0.751878976822,2016_Feb_09_1303,58.7872264083,beat_2AFC,001,CS,
stim/06_pa_hybrid_+00.wav,,,,,1,10,23,6,right,0.484361886978,2016_Feb_09_1303,58.7872264083,beat_2AFC,001,CS,
stim/05_pa_hybrid_-10.wav,,,,,1,11,24,5,left,0.801272153854,2016_Feb_09_1303,58.7872264083,beat_2AFC,001,CS,
stim/00_pa_hybrid_-60.wav,,,,,1,12,25,0,left,0.717777967453,2016_Feb_09_1303,58.7872264083,beat_2AFC,001,CS,
stim/01_pa_hybrid_-50.wav,,,,,2,0,26,1,left,0.501039981842,2016_Feb_09_1303,58.7872264083,beat_2AFC,001,CS,
stim/09_pa_hybrid_+30.wav,,,,,2,1,27,9,right,0.618310213089,2016_Feb_09_1303,58.7872264083,beat_2AFC,001,CS,
stim/04_pa_hybrid_-20.wav,,,,,2,2,28,4,left,0.58455991745,2016_Feb_09_1303,58.7872264083,beat_2AFC,001,CS,
stim/12_pa_hybrid_+60.wav,,,,,2,3,29,12,right,0.467722892761,2016_Feb_09_1303,58.7872264083,beat_2AFC,001,CS,
stim/06_pa_hybrid_+00.wav,,,,,2,4,30,6,left,0.500973939896,2016_Feb_09_1303,58.7872264083,beat_2AFC,001,CS,
stim/00_pa_hybrid_-60.wav,,,,,2,5,31,0,left,0.485289096832,2016_Feb_09_1303,58.7872264083,beat_2AFC,001,CS,
stim/05_pa_hybrid_-10.wav,,,,,2,6,32,5,left,0.434534072876,2016_Feb_09_1303,58.7872264083,beat_2AFC,001,CS,
stim/02_pa_hybrid_-40.wav,,,,,2,7,33,2,left,0.43429017067,2016_Feb_09_1303,58.7872264083,beat_2AFC,001,CS,
stim/10_pa_hybrid_+40.wav,,,,,2,8,34,10,right,0.434489965439,2016_Feb_09_1303,58.7872264083,beat_2AFC,001,CS,
stim/11_pa_hybrid_+50.wav,,,,,2,9,35,11,right,0.601034879684,2016_Feb_09_1303,58.7872264083,beat_2AFC,001,CS,
stim/03_pa_hybrid_-30.wav,,,,,2,10,36,3,left,0.451103925705,2016_Feb_09_1303,58.7872264083,beat_2AFC,001,CS,
stim/08_pa_hybrid_+20.wav,,,,,2,11,37,8,right,0.385123968124,2016_Feb_09_1303,58.7872264083,beat_2AFC,001,CS,
stim/07_pa_hybrid_+10.wav,,,,,2,12,38,7,left,0.384263038635,2016_Feb_09_1303,58.7872264083,beat_2AFC,001,CS,
stim/05_pa_hybrid_-10.wav,,,,,3,0,39,5,left,0.51744890213,2016_Feb_09_1303,58.7872264083,beat_2AFC,001,CS,
stim/08_pa_hybrid_+20.wav,,,,,3,1,40,8,right,0.433530092239,2016_Feb_09_1303,58.7872264083,beat_2AFC,001,CS,
stim/02_pa_hybrid_-40.wav,,,,,3,2,41,2,left,0.50164103508,2016_Feb_09_1303,58.7872264083,beat_2AFC,001,CS,
stim/12_pa_hybrid_+60.wav,,,,,3,3,42,12,right,0.417798042297,2016_Feb_09_1303,58.7872264083,beat_2AFC,001,CS,
stim/03_pa_hybrid_-30.wav,,,,,3,4,43,3,left,0.435782909393,2016_Feb_09_1303,58.7872264083,beat_2AFC,001,CS,
stim/09_pa_hybrid_+30.wav,,,,,3,5,44,9,right,0.400439023972,2016_Feb_09_1303,58.7872264083,beat_2AFC,001,CS,
stim/04_pa_hybrid_-20.wav,,,,,3,6,45,4,left,0.451170921326,2016_Feb_09_1303,58.7872264083,beat_2AFC,001,CS,
stim/07_pa_hybrid_+10.wav,,,,,3,7,46,7,left,0.500725030899,2016_Feb_09_1303,58.7872264083,beat_2AFC,001,CS,
stim/00_pa_hybrid_-60.wav,,,,,3,8,47,0,left,0.534573078156,2016_Feb_09_1303,58.7872264083,beat_2AFC,001,CS,
stim/10_pa_hybrid_+40.wav,,,,,3,9,48,10,right,0.601145982742,2016_Feb_09_1303,58.7872264083,beat_2AFC,001,CS,
stim/11_pa_hybrid_+50.wav,,,,,3,10,49,11,right,0.468576908112,2016_Feb_09_1303,58.7872264083,beat_2AFC,001,CS,
stim/01_pa_hybrid_-50.wav,,,,,3,11,50,1,left,0.667927026749,2016_Feb_09_1303,58.7872264083,beat_2AFC,001,CS,
stim/06_pa_hybrid_+00.wav,,,,,3,12,51,6,left,0.618679046631,2016_Feb_09_1303,58.7872264083,beat_2AFC,001,CS,
stim/05_pa_hybrid_-10.wav,,,,,4,0,52,5,left,0.551254034042,2016_Feb_09_1303,58.7872264083,beat_2AFC,001,CS,
stim/00_pa_hybrid_-60.wav,,,,,4,1,53,0,left,0.467862844467,2016_Feb_09_1303,58.7872264083,beat_2AFC,001,CS,
stim/02_pa_hybrid_-40.wav,,,,,4,2,54,2,left,0.533461093903,2016_Feb_09_1303,58.7872264083,beat_2AFC,001,CS,
stim/06_pa_hybrid_+00.wav,,,,,4,3,55,6,left,0.418154001236,2016_Feb_09_1303,58.7872264083,beat_2AFC,001,CS,
stim/07_pa_hybrid_+10.wav,,,,,4,4,56,7,left,0.451955080032,2016_Feb_09_1303,58.7872264083,beat_2AFC,001,CS,
stim/08_pa_hybrid_+20.wav,,,,,4,5,57,8,left,0.434237957001,2016_Feb_09_1303,58.7872264083,beat_2AFC,001,CS,
stim/12_pa_hybrid_+60.wav,,,,,4,6,58,12,right,0.516919851303,2016_Feb_09_1303,58.7872264083,beat_2AFC,001,CS,
stim/09_pa_hybrid_+30.wav,,,,,4,7,59,9,right,0.517450094223,2016_Feb_09_1303,58.7872264083,beat_2AFC,001,CS,
stim/01_pa_hybrid_-50.wav,,,,,4,8,60,1,left,0.784744977951,2016_Feb_09_1303,58.7872264083,beat_2AFC,001,CS,
stim/04_pa_hybrid_-20.wav,,,,,4,9,61,4,left,0.484780073166,2016_Feb_09_1303,58.7872264083,beat_2AFC,001,CS,
stim/11_pa_hybrid_+50.wav,,,,,4,10,62,11,right,0.449983119965,2016_Feb_09_1303,58.7872264083,beat_2AFC,001,CS,
stim/03_pa_hybrid_-30.wav,,,,,4,11,63,3,left,0.533746004105,2016_Feb_09_1303,58.7872264083,beat_2AFC,001,CS,
stim/10_pa_hybrid_+40.wav,,,,,4,12,64,10,right,0.517665863037,2016_Feb_09_1303,58.7872264083,beat_2AFC,001,CS,
