stimuli,practice_trial.thisRepN,practice_trial.thisTrialN,practice_trial.thisN,practice_trial.thisIndex,trials.thisRepN,trials.thisTrialN,trials.thisN,trials.thisIndex,key_resp_trial.keys,key_resp_trial.rt,date,frameRate,expName,session,participant,
stim/01_pa_hybrid_-50.wav,0,0,0,1,,,,,,,2016_Feb_07_1623,60.0636393579,beat_2AFC,001,jc,
stim/00_pa_hybrid_-60.wav,0,1,1,0,,,,,,,2016_Feb_07_1623,60.0636393579,beat_2AFC,001,jc,
stim/11_pa_hybrid_+50.wav,0,2,2,2,,,,,,,2016_Feb_07_1623,60.0636393579,beat_2AFC,001,jc,
stim/12_pa_hybrid_+60.wav,0,3,3,3,,,,,,,2016_Feb_07_1623,60.0636393579,beat_2AFC,001,jc,
stim/03_pa_hybrid_-30.wav,,,,,0,0,0,3,left,0.567837953568,2016_Feb_07_1623,60.0636393579,beat_2AFC,001,jc,
stim/07_pa_hybrid_+10.wav,,,,,0,1,1,7,left,0.900553941727,2016_Feb_07_1623,60.0636393579,beat_2AFC,001,jc,
stim/04_pa_hybrid_-20.wav,,,,,0,2,2,4,left,0.516895771027,2016_Feb_07_1623,60.0636393579,beat_2AFC,001,jc,
stim/11_pa_hybrid_+50.wav,,,,,0,3,3,11,left,0.217114925385,2016_Feb_07_1623,60.0636393579,beat_2AFC,001,jc,
stim/06_pa_hybrid_+00.wav,,,,,0,4,4,6,right,0.451649904251,2016_Feb_07_1623,60.0636393579,beat_2AFC,001,jc,
stim/08_pa_hybrid_+20.wav,,,,,0,5,5,8,right,0.55028295517,2016_Feb_07_1623,60.0636393579,beat_2AFC,001,jc,
stim/01_pa_hybrid_-50.wav,,,,,0,6,6,1,left,0.467521905899,2016_Feb_07_1623,60.0636393579,beat_2AFC,001,jc,
stim/10_pa_hybrid_+40.wav,,,,,0,7,7,10,right,0.503553152084,2016_Feb_07_1623,60.0636393579,beat_2AFC,001,jc,
stim/05_pa_hybrid_-10.wav,,,,,0,8,8,5,left,0.401309013367,2016_Feb_07_1623,60.0636393579,beat_2AFC,001,jc,
stim/02_pa_hybrid_-40.wav,,,,,0,9,9,2,left,0.633455991745,2016_Feb_07_1623,60.0636393579,beat_2AFC,001,jc,
stim/00_pa_hybrid_-60.wav,,,,,0,10,10,0,left,0.497226953506,2016_Feb_07_1623,60.0636393579,beat_2AFC,001,jc,
stim/09_pa_hybrid_+30.wav,,,,,0,11,11,9,right,0.451076984406,2016_Feb_07_1623,60.0636393579,beat_2AFC,001,jc,
stim/12_pa_hybrid_+60.wav,,,,,0,12,12,12,right,0.484726905823,2016_Feb_07_1623,60.0636393579,beat_2AFC,001,jc,
stim/06_pa_hybrid_+00.wav,,,,,1,0,13,6,left,0.554319143295,2016_Feb_07_1623,60.0636393579,beat_2AFC,001,jc,
stim/11_pa_hybrid_+50.wav,,,,,1,1,14,11,right,0.598093986511,2016_Feb_07_1623,60.0636393579,beat_2AFC,001,jc,
stim/07_pa_hybrid_+10.wav,,,,,1,2,15,7,right,0.600775957108,2016_Feb_07_1623,60.0636393579,beat_2AFC,001,jc,
stim/08_pa_hybrid_+20.wav,,,,,1,3,16,8,right,0.617701053619,2016_Feb_07_1623,60.0636393579,beat_2AFC,001,jc,
stim/01_pa_hybrid_-50.wav,,,,,1,4,17,1,left,0.434036970139,2016_Feb_07_1623,60.0636393579,beat_2AFC,001,jc,
stim/00_pa_hybrid_-60.wav,,,,,1,5,18,0,left,0.364388942719,2016_Feb_07_1623,60.0636393579,beat_2AFC,001,jc,
stim/02_pa_hybrid_-40.wav,,,,,1,6,19,2,left,0.403820037842,2016_Feb_07_1623,60.0636393579,beat_2AFC,001,jc,
stim/03_pa_hybrid_-30.wav,,,,,1,7,20,3,left,0.416490077972,2016_Feb_07_1623,60.0636393579,beat_2AFC,001,jc,
stim/09_pa_hybrid_+30.wav,,,,,1,8,21,9,left,0.397925853729,2016_Feb_07_1623,60.0636393579,beat_2AFC,001,jc,
stim/05_pa_hybrid_-10.wav,,,,,1,9,22,5,left,0.684380054474,2016_Feb_07_1623,60.0636393579,beat_2AFC,001,jc,
stim/12_pa_hybrid_+60.wav,,,,,1,10,23,12,right,0.404329776764,2016_Feb_07_1623,60.0636393579,beat_2AFC,001,jc,
stim/04_pa_hybrid_-20.wav,,,,,1,11,24,4,left,0.498044967651,2016_Feb_07_1623,60.0636393579,beat_2AFC,001,jc,
stim/10_pa_hybrid_+40.wav,,,,,1,12,25,10,right,0.766132116318,2016_Feb_07_1623,60.0636393579,beat_2AFC,001,jc,
stim/12_pa_hybrid_+60.wav,,,,,2,0,26,12,right,0.548117160797,2016_Feb_07_1623,60.0636393579,beat_2AFC,001,jc,
stim/09_pa_hybrid_+30.wav,,,,,2,1,27,9,right,0.534245014191,2016_Feb_07_1623,60.0636393579,beat_2AFC,001,jc,
stim/00_pa_hybrid_-60.wav,,,,,2,2,28,0,left,0.434052228928,2016_Feb_07_1623,60.0636393579,beat_2AFC,001,jc,
stim/01_pa_hybrid_-50.wav,,,,,2,3,29,1,left,0.781467914581,2016_Feb_07_1623,60.0636393579,beat_2AFC,001,jc,
stim/02_pa_hybrid_-40.wav,,,,,2,4,30,2,left,0.497370958328,2016_Feb_07_1623,60.0636393579,beat_2AFC,001,jc,
stim/11_pa_hybrid_+50.wav,,,,,2,5,31,11,right,0.566895961761,2016_Feb_07_1623,60.0636393579,beat_2AFC,001,jc,
stim/10_pa_hybrid_+40.wav,,,,,2,6,32,10,right,0.496539115906,2016_Feb_07_1623,60.0636393579,beat_2AFC,001,jc,
stim/04_pa_hybrid_-20.wav,,,,,2,7,33,4,left,0.485225915909,2016_Feb_07_1623,60.0636393579,beat_2AFC,001,jc,
stim/08_pa_hybrid_+20.wav,,,,,2,8,34,8,right,0.530441999435,2016_Feb_07_1623,60.0636393579,beat_2AFC,001,jc,
stim/05_pa_hybrid_-10.wav,,,,,2,9,35,5,left,0.520985126495,2016_Feb_07_1623,60.0636393579,beat_2AFC,001,jc,
stim/06_pa_hybrid_+00.wav,,,,,2,10,36,6,left,0.537229061127,2016_Feb_07_1623,60.0636393579,beat_2AFC,001,jc,
stim/03_pa_hybrid_-30.wav,,,,,2,11,37,3,left,0.551630020142,2016_Feb_07_1623,60.0636393579,beat_2AFC,001,jc,
stim/07_pa_hybrid_+10.wav,,,,,2,12,38,7,left,0.564095020294,2016_Feb_07_1623,60.0636393579,beat_2AFC,001,jc,
stim/06_pa_hybrid_+00.wav,,,,,3,0,39,6,left,0.583436965942,2016_Feb_07_1623,60.0636393579,beat_2AFC,001,jc,
stim/07_pa_hybrid_+10.wav,,,,,3,1,40,7,right,0.500931024551,2016_Feb_07_1623,60.0636393579,beat_2AFC,001,jc,
stim/03_pa_hybrid_-30.wav,,,,,3,2,41,3,left,0.515022993088,2016_Feb_07_1623,60.0636393579,beat_2AFC,001,jc,
stim/04_pa_hybrid_-20.wav,,,,,3,3,42,4,left,0.435203075409,2016_Feb_07_1623,60.0636393579,beat_2AFC,001,jc,
stim/00_pa_hybrid_-60.wav,,,,,3,4,43,0,left,0.549935102463,2016_Feb_07_1623,60.0636393579,beat_2AFC,001,jc,
stim/10_pa_hybrid_+40.wav,,,,,3,5,44,10,right,0.470655918121,2016_Feb_07_1623,60.0636393579,beat_2AFC,001,jc,
stim/09_pa_hybrid_+30.wav,,,,,3,6,45,9,right,0.464502096176,2016_Feb_07_1623,60.0636393579,beat_2AFC,001,jc,
stim/05_pa_hybrid_-10.wav,,,,,3,7,46,5,left,0.48784995079,2016_Feb_07_1623,60.0636393579,beat_2AFC,001,jc,
stim/02_pa_hybrid_-40.wav,,,,,3,8,47,2,left,0.530632972717,2016_Feb_07_1623,60.0636393579,beat_2AFC,001,jc,
stim/12_pa_hybrid_+60.wav,,,,,3,9,48,12,right,0.418037176132,2016_Feb_07_1623,60.0636393579,beat_2AFC,001,jc,
stim/08_pa_hybrid_+20.wav,,,,,3,10,49,8,left,0.60432100296,2016_Feb_07_1623,60.0636393579,beat_2AFC,001,jc,
stim/11_pa_hybrid_+50.wav,,,,,3,11,50,11,right,0.537630081177,2016_Feb_07_1623,60.0636393579,beat_2AFC,001,jc,
stim/01_pa_hybrid_-50.wav,,,,,3,12,51,1,left,0.513766050339,2016_Feb_07_1623,60.0636393579,beat_2AFC,001,jc,
stim/06_pa_hybrid_+00.wav,,,,,4,0,52,6,left,0.481467008591,2016_Feb_07_1623,60.0636393579,beat_2AFC,001,jc,
stim/03_pa_hybrid_-30.wav,,,,,4,1,53,3,left,0.500926017761,2016_Feb_07_1623,60.0636393579,beat_2AFC,001,jc,
stim/04_pa_hybrid_-20.wav,,,,,4,2,54,4,left,0.518155097961,2016_Feb_07_1623,60.0636393579,beat_2AFC,001,jc,
stim/05_pa_hybrid_-10.wav,,,,,4,3,55,5,left,0.533679962158,2016_Feb_07_1623,60.0636393579,beat_2AFC,001,jc,
stim/07_pa_hybrid_+10.wav,,,,,4,4,56,7,right,0.530884981155,2016_Feb_07_1623,60.0636393579,beat_2AFC,001,jc,
stim/00_pa_hybrid_-60.wav,,,,,4,5,57,0,left,0.4674949646,2016_Feb_07_1623,60.0636393579,beat_2AFC,001,jc,
stim/01_pa_hybrid_-50.wav,,,,,4,6,58,1,left,0.454149007797,2016_Feb_07_1623,60.0636393579,beat_2AFC,001,jc,
stim/09_pa_hybrid_+30.wav,,,,,4,7,59,9,right,0.550477981567,2016_Feb_07_1623,60.0636393579,beat_2AFC,001,jc,
stim/11_pa_hybrid_+50.wav,,,,,4,8,60,11,right,0.488104104996,2016_Feb_07_1623,60.0636393579,beat_2AFC,001,jc,
stim/02_pa_hybrid_-40.wav,,,,,4,9,61,2,left,0.49799489975,2016_Feb_07_1623,60.0636393579,beat_2AFC,001,jc,
stim/08_pa_hybrid_+20.wav,,,,,4,10,62,8,right,0.451930999756,2016_Feb_07_1623,60.0636393579,beat_2AFC,001,jc,
stim/12_pa_hybrid_+60.wav,,,,,4,11,63,12,right,0.501523017883,2016_Feb_07_1623,60.0636393579,beat_2AFC,001,jc,
stim/10_pa_hybrid_+40.wav,,,,,4,12,64,10,left,0.517027854919,2016_Feb_07_1623,60.0636393579,beat_2AFC,001,jc,
