stimuli,practice_trial.thisRepN,practice_trial.thisTrialN,practice_trial.thisN,practice_trial.thisIndex,trials.thisRepN,trials.thisTrialN,trials.thisN,trials.thisIndex,key_resp_trial.keys,key_resp_trial.rt,date,frameRate,expName,session,participant,
stim/01_pa_hybrid_-50.wav,0,0,0,1,,,,,,,2016_Feb_09_1308,60.1408921256,beat_2AFC,001,lh,
stim/12_pa_hybrid_+60.wav,0,1,1,3,,,,,,,2016_Feb_09_1308,60.1408921256,beat_2AFC,001,lh,
stim/11_pa_hybrid_+50.wav,0,2,2,2,,,,,,,2016_Feb_09_1308,60.1408921256,beat_2AFC,001,lh,
stim/00_pa_hybrid_-60.wav,0,3,3,0,,,,,,,2016_Feb_09_1308,60.1408921256,beat_2AFC,001,lh,
stim/00_pa_hybrid_-60.wav,,,,,0,0,0,0,left,0.466447114944,2016_Feb_09_1308,60.1408921256,beat_2AFC,001,lh,
stim/07_pa_hybrid_+10.wav,,,,,0,1,1,7,right,0.316689014435,2016_Feb_09_1308,60.1408921256,beat_2AFC,001,lh,
stim/02_pa_hybrid_-40.wav,,,,,0,2,2,2,left,0.383797883987,2016_Feb_09_1308,60.1408921256,beat_2AFC,001,lh,
stim/03_pa_hybrid_-30.wav,,,,,0,3,3,3,left,0.383303880692,2016_Feb_09_1308,60.1408921256,beat_2AFC,001,lh,
stim/09_pa_hybrid_+30.wav,,,,,0,4,4,9,right,0.35000705719,2016_Feb_09_1308,60.1408921256,beat_2AFC,001,lh,
stim/01_pa_hybrid_-50.wav,,,,,0,5,5,1,left,0.349809885025,2016_Feb_09_1308,60.1408921256,beat_2AFC,001,lh,
stim/04_pa_hybrid_-20.wav,,,,,0,6,6,4,left,0.383162021637,2016_Feb_09_1308,60.1408921256,beat_2AFC,001,lh,
stim/12_pa_hybrid_+60.wav,,,,,0,7,7,12,right,0.299886226654,2016_Feb_09_1308,60.1408921256,beat_2AFC,001,lh,
stim/06_pa_hybrid_+00.wav,,,,,0,8,8,6,left,0.28338599205,2016_Feb_09_1308,60.1408921256,beat_2AFC,001,lh,
stim/10_pa_hybrid_+40.wav,,,,,0,9,9,10,right,0.366855859756,2016_Feb_09_1308,60.1408921256,beat_2AFC,001,lh,
stim/08_pa_hybrid_+20.wav,,,,,0,10,10,8,left,0.366626977921,2016_Feb_09_1308,60.1408921256,beat_2AFC,001,lh,
stim/11_pa_hybrid_+50.wav,,,,,0,11,11,11,right,0.499588012695,2016_Feb_09_1308,60.1408921256,beat_2AFC,001,lh,
stim/05_pa_hybrid_-10.wav,,,,,0,12,12,5,left,0.466055870056,2016_Feb_09_1308,60.1408921256,beat_2AFC,001,lh,
stim/01_pa_hybrid_-50.wav,,,,,1,0,13,1,left,0.466356039047,2016_Feb_09_1308,60.1408921256,beat_2AFC,001,lh,
stim/11_pa_hybrid_+50.wav,,,,,1,1,14,11,right,0.433127880096,2016_Feb_09_1308,60.1408921256,beat_2AFC,001,lh,
stim/12_pa_hybrid_+60.wav,,,,,1,2,15,12,right,0.433042049408,2016_Feb_09_1308,60.1408921256,beat_2AFC,001,lh,
stim/06_pa_hybrid_+00.wav,,,,,1,3,16,6,left,0.466360807419,2016_Feb_09_1308,60.1408921256,beat_2AFC,001,lh,
stim/05_pa_hybrid_-10.wav,,,,,1,4,17,5,left,0.466336965561,2016_Feb_09_1308,60.1408921256,beat_2AFC,001,lh,
stim/00_pa_hybrid_-60.wav,,,,,1,5,18,0,left,0.482871055603,2016_Feb_09_1308,60.1408921256,beat_2AFC,001,lh,
stim/03_pa_hybrid_-30.wav,,,,,1,6,19,3,left,0.38335108757,2016_Feb_09_1308,60.1408921256,beat_2AFC,001,lh,
stim/08_pa_hybrid_+20.wav,,,,,1,7,20,8,right,0.3997631073,2016_Feb_09_1308,60.1408921256,beat_2AFC,001,lh,
stim/04_pa_hybrid_-20.wav,,,,,1,8,21,4,left,0.383274078369,2016_Feb_09_1308,60.1408921256,beat_2AFC,001,lh,
stim/07_pa_hybrid_+10.wav,,,,,1,9,22,7,right,0.532674789429,2016_Feb_09_1308,60.1408921256,beat_2AFC,001,lh,
stim/02_pa_hybrid_-40.wav,,,,,1,10,23,2,left,0.399818181992,2016_Feb_09_1308,60.1408921256,beat_2AFC,001,lh,
stim/09_pa_hybrid_+30.wav,,,,,1,11,24,9,right,0.366604089737,2016_Feb_09_1308,60.1408921256,beat_2AFC,001,lh,
stim/10_pa_hybrid_+40.wav,,,,,1,12,25,10,right,0.466382026672,2016_Feb_09_1308,60.1408921256,beat_2AFC,001,lh,
stim/04_pa_hybrid_-20.wav,,,,,2,0,26,4,left,0.433093070984,2016_Feb_09_1308,60.1408921256,beat_2AFC,001,lh,
stim/02_pa_hybrid_-40.wav,,,,,2,1,27,2,left,0.333196878433,2016_Feb_09_1308,60.1408921256,beat_2AFC,001,lh,
stim/09_pa_hybrid_+30.wav,,,,,2,2,28,9,right,0.349740982056,2016_Feb_09_1308,60.1408921256,beat_2AFC,001,lh,
stim/12_pa_hybrid_+60.wav,,,,,2,3,29,12,right,0.51626086235,2016_Feb_09_1308,60.1408921256,beat_2AFC,001,lh,
stim/01_pa_hybrid_-50.wav,,,,,2,4,30,1,left,0.433128833771,2016_Feb_09_1308,60.1408921256,beat_2AFC,001,lh,
stim/06_pa_hybrid_+00.wav,,,,,2,5,31,6,left,0.299820899963,2016_Feb_09_1308,60.1408921256,beat_2AFC,001,lh,
stim/00_pa_hybrid_-60.wav,,,,,2,6,32,0,left,0.449679136276,2016_Feb_09_1308,60.1408921256,beat_2AFC,001,lh,
stim/08_pa_hybrid_+20.wav,,,,,2,7,33,8,right,0.299502134323,2016_Feb_09_1308,60.1408921256,beat_2AFC,001,lh,
stim/03_pa_hybrid_-30.wav,,,,,2,8,34,3,left,0.366503000259,2016_Feb_09_1308,60.1408921256,beat_2AFC,001,lh,
stim/10_pa_hybrid_+40.wav,,,,,2,9,35,10,right,0.433147907257,2016_Feb_09_1308,60.1408921256,beat_2AFC,001,lh,
stim/07_pa_hybrid_+10.wav,,,,,2,10,36,7,right,0.632810115814,2016_Feb_09_1308,60.1408921256,beat_2AFC,001,lh,
stim/05_pa_hybrid_-10.wav,,,,,2,11,37,5,left,0.466249227524,2016_Feb_09_1308,60.1408921256,beat_2AFC,001,lh,
stim/11_pa_hybrid_+50.wav,,,,,2,12,38,11,right,0.499002933502,2016_Feb_09_1308,60.1408921256,beat_2AFC,001,lh,
stim/10_pa_hybrid_+40.wav,,,,,3,0,39,10,right,0.599335193634,2016_Feb_09_1308,60.1408921256,beat_2AFC,001,lh,
stim/12_pa_hybrid_+60.wav,,,,,3,1,40,12,right,0.48286986351,2016_Feb_09_1308,60.1408921256,beat_2AFC,001,lh,
stim/04_pa_hybrid_-20.wav,,,,,3,2,41,4,left,0.383028030396,2016_Feb_09_1308,60.1408921256,beat_2AFC,001,lh,
stim/03_pa_hybrid_-30.wav,,,,,3,3,42,3,left,0.44967007637,2016_Feb_09_1308,60.1408921256,beat_2AFC,001,lh,
stim/09_pa_hybrid_+30.wav,,,,,3,4,43,9,right,0.383373975754,2016_Feb_09_1308,60.1408921256,beat_2AFC,001,lh,
stim/07_pa_hybrid_+10.wav,,,,,3,5,44,7,right,0.499155044556,2016_Feb_09_1308,60.1408921256,beat_2AFC,001,lh,
stim/06_pa_hybrid_+00.wav,,,,,3,6,45,6,left,0.299936056137,2016_Feb_09_1308,60.1408921256,beat_2AFC,001,lh,
stim/05_pa_hybrid_-10.wav,,,,,3,7,46,5,left,0.499027967453,2016_Feb_09_1308,60.1408921256,beat_2AFC,001,lh,
stim/02_pa_hybrid_-40.wav,,,,,3,8,47,2,left,0.432821989059,2016_Feb_09_1308,60.1408921256,beat_2AFC,001,lh,
stim/01_pa_hybrid_-50.wav,,,,,3,9,48,1,left,0.449735164642,2016_Feb_09_1308,60.1408921256,beat_2AFC,001,lh,
stim/11_pa_hybrid_+50.wav,,,,,3,10,49,11,right,0.416885137558,2016_Feb_09_1308,60.1408921256,beat_2AFC,001,lh,
stim/08_pa_hybrid_+20.wav,,,,,3,11,50,8,right,0.333280086517,2016_Feb_09_1308,60.1408921256,beat_2AFC,001,lh,
stim/00_pa_hybrid_-60.wav,,,,,3,12,51,0,left,0.333563089371,2016_Feb_09_1308,60.1408921256,beat_2AFC,001,lh,
stim/00_pa_hybrid_-60.wav,,,,,4,0,52,0,left,0.350028991699,2016_Feb_09_1308,60.1408921256,beat_2AFC,001,lh,
stim/05_pa_hybrid_-10.wav,,,,,4,1,53,5,left,0.349915027618,2016_Feb_09_1308,60.1408921256,beat_2AFC,001,lh,
stim/08_pa_hybrid_+20.wav,,,,,4,2,54,8,right,0.300168991089,2016_Feb_09_1308,60.1408921256,beat_2AFC,001,lh,
stim/10_pa_hybrid_+40.wav,,,,,4,3,55,10,left,0.432841062546,2016_Feb_09_1308,60.1408921256,beat_2AFC,001,lh,
stim/11_pa_hybrid_+50.wav,,,,,4,4,56,11,right,0.532855033875,2016_Feb_09_1308,60.1408921256,beat_2AFC,001,lh,
stim/09_pa_hybrid_+30.wav,,,,,4,5,57,9,right,0.433093070984,2016_Feb_09_1308,60.1408921256,beat_2AFC,001,lh,
stim/01_pa_hybrid_-50.wav,,,,,4,6,58,1,left,0.433012962341,2016_Feb_09_1308,60.1408921256,beat_2AFC,001,lh,
stim/12_pa_hybrid_+60.wav,,,,,4,7,59,12,right,0.449863910675,2016_Feb_09_1308,60.1408921256,beat_2AFC,001,lh,
stim/07_pa_hybrid_+10.wav,,,,,4,8,60,7,left,0.798977851868,2016_Feb_09_1308,60.1408921256,beat_2AFC,001,lh,
stim/03_pa_hybrid_-30.wav,,,,,4,9,61,3,left,0.599220991135,2016_Feb_09_1308,60.1408921256,beat_2AFC,001,lh,
stim/04_pa_hybrid_-20.wav,,,,,4,10,62,4,left,0.482915878296,2016_Feb_09_1308,60.1408921256,beat_2AFC,001,lh,
stim/06_pa_hybrid_+00.wav,,,,,4,11,63,6,right,1.14787602425,2016_Feb_09_1308,60.1408921256,beat_2AFC,001,lh,
stim/02_pa_hybrid_-40.wav,,,,,4,12,64,2,left,0.499340057373,2016_Feb_09_1308,60.1408921256,beat_2AFC,001,lh,
