stimuli,practice_trial.thisRepN,practice_trial.thisTrialN,practice_trial.thisN,practice_trial.thisIndex,trials.thisRepN,trials.thisTrialN,trials.thisN,trials.thisIndex,key_resp_trial.keys,key_resp_trial.rt,date,frameRate,expName,session,participant,
stim/00_pa_hybrid_-60.wav,0,0,0,0,,,,,,,2016_Feb_09_1256,60.1022839792,beat_2AFC,001,ma,
stim/12_pa_hybrid_+60.wav,0,1,1,3,,,,,,,2016_Feb_09_1256,60.1022839792,beat_2AFC,001,ma,
stim/01_pa_hybrid_-50.wav,0,2,2,1,,,,,,,2016_Feb_09_1256,60.1022839792,beat_2AFC,001,ma,
stim/11_pa_hybrid_+50.wav,0,3,3,2,,,,,,,2016_Feb_09_1256,60.1022839792,beat_2AFC,001,ma,
stim/01_pa_hybrid_-50.wav,,,,,0,0,0,1,left,2.38418912888,2016_Feb_09_1256,60.1022839792,beat_2AFC,001,ma,
stim/00_pa_hybrid_-60.wav,,,,,0,1,1,0,left,0.751269102097,2016_Feb_09_1256,60.1022839792,beat_2AFC,001,ma,
stim/09_pa_hybrid_+30.wav,,,,,0,2,2,9,right,0.401412010193,2016_Feb_09_1256,60.1022839792,beat_2AFC,001,ma,
stim/11_pa_hybrid_+50.wav,,,,,0,3,3,11,right,0.566326856613,2016_Feb_09_1256,60.1022839792,beat_2AFC,001,ma,
stim/10_pa_hybrid_+40.wav,,,,,0,4,4,10,right,0.434434890747,2016_Feb_09_1256,60.1022839792,beat_2AFC,001,ma,
stim/02_pa_hybrid_-40.wav,,,,,0,5,5,2,left,0.550468921661,2016_Feb_09_1256,60.1022839792,beat_2AFC,001,ma,
stim/03_pa_hybrid_-30.wav,,,,,0,6,6,3,left,0.418313980103,2016_Feb_09_1256,60.1022839792,beat_2AFC,001,ma,
stim/07_pa_hybrid_+10.wav,,,,,0,7,7,7,right,0.684126138687,2016_Feb_09_1256,60.1022839792,beat_2AFC,001,ma,
stim/06_pa_hybrid_+00.wav,,,,,0,8,8,6,right,0.633244991302,2016_Feb_09_1256,60.1022839792,beat_2AFC,001,ma,
stim/05_pa_hybrid_-10.wav,,,,,0,9,9,5,left,0.433356046677,2016_Feb_09_1256,60.1022839792,beat_2AFC,001,ma,
stim/12_pa_hybrid_+60.wav,,,,,0,10,10,12,right,0.551167011261,2016_Feb_09_1256,60.1022839792,beat_2AFC,001,ma,
stim/08_pa_hybrid_+20.wav,,,,,0,11,11,8,right,0.501340150833,2016_Feb_09_1256,60.1022839792,beat_2AFC,001,ma,
stim/04_pa_hybrid_-20.wav,,,,,0,12,12,4,left,0.383551836014,2016_Feb_09_1256,60.1022839792,beat_2AFC,001,ma,
stim/06_pa_hybrid_+00.wav,,,,,1,0,13,6,right,0.417330980301,2016_Feb_09_1256,60.1022839792,beat_2AFC,001,ma,
stim/00_pa_hybrid_-60.wav,,,,,1,1,14,0,left,0.38397192955,2016_Feb_09_1256,60.1022839792,beat_2AFC,001,ma,
stim/05_pa_hybrid_-10.wav,,,,,1,2,15,5,left,0.700788021088,2016_Feb_09_1256,60.1022839792,beat_2AFC,001,ma,
stim/11_pa_hybrid_+50.wav,,,,,1,3,16,11,right,0.433259010315,2016_Feb_09_1256,60.1022839792,beat_2AFC,001,ma,
stim/01_pa_hybrid_-50.wav,,,,,1,4,17,1,left,0.435082912445,2016_Feb_09_1256,60.1022839792,beat_2AFC,001,ma,
stim/10_pa_hybrid_+40.wav,,,,,1,5,18,10,right,0.58438205719,2016_Feb_09_1256,60.1022839792,beat_2AFC,001,ma,
stim/08_pa_hybrid_+20.wav,,,,,1,6,19,8,right,0.45051407814,2016_Feb_09_1256,60.1022839792,beat_2AFC,001,ma,
stim/02_pa_hybrid_-40.wav,,,,,1,7,20,2,left,0.300487995148,2016_Feb_09_1256,60.1022839792,beat_2AFC,001,ma,
stim/12_pa_hybrid_+60.wav,,,,,1,8,21,12,right,0.451145887375,2016_Feb_09_1256,60.1022839792,beat_2AFC,001,ma,
stim/04_pa_hybrid_-20.wav,,,,,1,9,22,4,left,0.384645938873,2016_Feb_09_1256,60.1022839792,beat_2AFC,001,ma,
stim/07_pa_hybrid_+10.wav,,,,,1,10,23,7,right,0.501363039017,2016_Feb_09_1256,60.1022839792,beat_2AFC,001,ma,
stim/03_pa_hybrid_-30.wav,,,,,1,11,24,3,left,0.350791931152,2016_Feb_09_1256,60.1022839792,beat_2AFC,001,ma,
stim/09_pa_hybrid_+30.wav,,,,,1,12,25,9,right,0.58386015892,2016_Feb_09_1256,60.1022839792,beat_2AFC,001,ma,
stim/06_pa_hybrid_+00.wav,,,,,2,0,26,6,left,0.468219995499,2016_Feb_09_1256,60.1022839792,beat_2AFC,001,ma,
stim/07_pa_hybrid_+10.wav,,,,,2,1,27,7,left,0.867316961288,2016_Feb_09_1256,60.1022839792,beat_2AFC,001,ma,
stim/03_pa_hybrid_-30.wav,,,,,2,2,28,3,left,0.634650945663,2016_Feb_09_1256,60.1022839792,beat_2AFC,001,ma,
stim/08_pa_hybrid_+20.wav,,,,,2,3,29,8,right,0.53319811821,2016_Feb_09_1256,60.1022839792,beat_2AFC,001,ma,
stim/01_pa_hybrid_-50.wav,,,,,2,4,30,1,left,0.383512973785,2016_Feb_09_1256,60.1022839792,beat_2AFC,001,ma,
stim/09_pa_hybrid_+30.wav,,,,,2,5,31,9,right,0.517333984375,2016_Feb_09_1256,60.1022839792,beat_2AFC,001,ma,
stim/04_pa_hybrid_-20.wav,,,,,2,6,32,4,left,0.484488010406,2016_Feb_09_1256,60.1022839792,beat_2AFC,001,ma,
stim/02_pa_hybrid_-40.wav,,,,,2,7,33,2,left,0.417752981186,2016_Feb_09_1256,60.1022839792,beat_2AFC,001,ma,
stim/12_pa_hybrid_+60.wav,,,,,2,8,34,12,right,0.517611026764,2016_Feb_09_1256,60.1022839792,beat_2AFC,001,ma,
stim/00_pa_hybrid_-60.wav,,,,,2,9,35,0,left,0.367527008057,2016_Feb_09_1256,60.1022839792,beat_2AFC,001,ma,
stim/10_pa_hybrid_+40.wav,,,,,2,10,36,10,right,0.434721946716,2016_Feb_09_1256,60.1022839792,beat_2AFC,001,ma,
stim/05_pa_hybrid_-10.wav,,,,,2,11,37,5,left,0.450065135956,2016_Feb_09_1256,60.1022839792,beat_2AFC,001,ma,
stim/11_pa_hybrid_+50.wav,,,,,2,12,38,11,right,0.468122959137,2016_Feb_09_1256,60.1022839792,beat_2AFC,001,ma,
stim/06_pa_hybrid_+00.wav,,,,,3,0,39,6,left,0.568403959274,2016_Feb_09_1256,60.1022839792,beat_2AFC,001,ma,
stim/03_pa_hybrid_-30.wav,,,,,3,1,40,3,left,0.400099992752,2016_Feb_09_1256,60.1022839792,beat_2AFC,001,ma,
stim/04_pa_hybrid_-20.wav,,,,,3,2,41,4,left,0.433875799179,2016_Feb_09_1256,60.1022839792,beat_2AFC,001,ma,
stim/02_pa_hybrid_-40.wav,,,,,3,3,42,2,left,0.417009115219,2016_Feb_09_1256,60.1022839792,beat_2AFC,001,ma,
stim/11_pa_hybrid_+50.wav,,,,,3,4,43,11,right,0.417971849442,2016_Feb_09_1256,60.1022839792,beat_2AFC,001,ma,
stim/00_pa_hybrid_-60.wav,,,,,3,5,44,0,left,0.400370121002,2016_Feb_09_1256,60.1022839792,beat_2AFC,001,ma,
stim/10_pa_hybrid_+40.wav,,,,,3,6,45,10,right,0.434215068817,2016_Feb_09_1256,60.1022839792,beat_2AFC,001,ma,
stim/09_pa_hybrid_+30.wav,,,,,3,7,46,9,right,0.550961017609,2016_Feb_09_1256,60.1022839792,beat_2AFC,001,ma,
stim/05_pa_hybrid_-10.wav,,,,,3,8,47,5,left,0.417912960052,2016_Feb_09_1256,60.1022839792,beat_2AFC,001,ma,
stim/08_pa_hybrid_+20.wav,,,,,3,9,48,8,right,0.401217937469,2016_Feb_09_1256,60.1022839792,beat_2AFC,001,ma,
stim/07_pa_hybrid_+10.wav,,,,,3,10,49,7,left,0.384027004242,2016_Feb_09_1256,60.1022839792,beat_2AFC,001,ma,
stim/01_pa_hybrid_-50.wav,,,,,3,11,50,1,left,0.699882030487,2016_Feb_09_1256,60.1022839792,beat_2AFC,001,ma,
stim/12_pa_hybrid_+60.wav,,,,,3,12,51,12,right,0.366919994354,2016_Feb_09_1256,60.1022839792,beat_2AFC,001,ma,
stim/10_pa_hybrid_+40.wav,,,,,4,0,52,10,right,0.434798002243,2016_Feb_09_1256,60.1022839792,beat_2AFC,001,ma,
stim/12_pa_hybrid_+60.wav,,,,,4,1,53,12,right,0.700422048569,2016_Feb_09_1256,60.1022839792,beat_2AFC,001,ma,
stim/01_pa_hybrid_-50.wav,,,,,4,2,54,1,left,0.335232019424,2016_Feb_09_1256,60.1022839792,beat_2AFC,001,ma,
stim/06_pa_hybrid_+00.wav,,,,,4,3,55,6,right,0.384238958359,2016_Feb_09_1256,60.1022839792,beat_2AFC,001,ma,
stim/05_pa_hybrid_-10.wav,,,,,4,4,56,5,left,0.518130064011,2016_Feb_09_1256,60.1022839792,beat_2AFC,001,ma,
stim/09_pa_hybrid_+30.wav,,,,,4,5,57,9,right,0.49946808815,2016_Feb_09_1256,60.1022839792,beat_2AFC,001,ma,
stim/07_pa_hybrid_+10.wav,,,,,4,6,58,7,right,0.400835990906,2016_Feb_09_1256,60.1022839792,beat_2AFC,001,ma,
stim/00_pa_hybrid_-60.wav,,,,,4,7,59,0,left,0.383646011353,2016_Feb_09_1256,60.1022839792,beat_2AFC,001,ma,
stim/02_pa_hybrid_-40.wav,,,,,4,8,60,2,left,0.466369867325,2016_Feb_09_1256,60.1022839792,beat_2AFC,001,ma,
stim/03_pa_hybrid_-30.wav,,,,,4,9,61,3,left,0.434218168259,2016_Feb_09_1256,60.1022839792,beat_2AFC,001,ma,
stim/04_pa_hybrid_-20.wav,,,,,4,10,62,4,left,0.433239936829,2016_Feb_09_1256,60.1022839792,beat_2AFC,001,ma,
stim/11_pa_hybrid_+50.wav,,,,,4,11,63,11,right,0.484301805496,2016_Feb_09_1256,60.1022839792,beat_2AFC,001,ma,
stim/08_pa_hybrid_+20.wav,,,,,4,12,64,8,right,0.351562023163,2016_Feb_09_1256,60.1022839792,beat_2AFC,001,ma,
