stimuli,practice_trial.thisRepN,practice_trial.thisTrialN,practice_trial.thisN,practice_trial.thisIndex,trials.thisRepN,trials.thisTrialN,trials.thisN,trials.thisIndex,key_resp_trial.keys,key_resp_trial.rt,date,frameRate,expName,session,participant,
stim/12_pa_hybrid_+60.wav,0,0,0,3,,,,,,,2016_Feb_09_1305,59.4569032485,beat_2AFC,001,na,
stim/00_pa_hybrid_-60.wav,0,1,1,0,,,,,,,2016_Feb_09_1305,59.4569032485,beat_2AFC,001,na,
stim/01_pa_hybrid_-50.wav,0,2,2,1,,,,,,,2016_Feb_09_1305,59.4569032485,beat_2AFC,001,na,
stim/11_pa_hybrid_+50.wav,0,3,3,2,,,,,,,2016_Feb_09_1305,59.4569032485,beat_2AFC,001,na,
stim/09_pa_hybrid_+30.wav,,,,,0,0,0,9,right,0.467931985855,2016_Feb_09_1305,59.4569032485,beat_2AFC,001,na,
stim/04_pa_hybrid_-20.wav,,,,,0,1,1,4,left,0.451133966446,2016_Feb_09_1305,59.4569032485,beat_2AFC,001,na,
stim/08_pa_hybrid_+20.wav,,,,,0,2,2,8,right,0.401329040527,2016_Feb_09_1305,59.4569032485,beat_2AFC,001,na,
stim/11_pa_hybrid_+50.wav,,,,,0,3,3,11,right,0.584826946259,2016_Feb_09_1305,59.4569032485,beat_2AFC,001,na,
stim/01_pa_hybrid_-50.wav,,,,,0,4,4,1,left,0.417752027512,2016_Feb_09_1305,59.4569032485,beat_2AFC,001,na,
stim/12_pa_hybrid_+60.wav,,,,,0,5,5,12,right,0.433731794357,2016_Feb_09_1305,59.4569032485,beat_2AFC,001,na,
stim/07_pa_hybrid_+10.wav,,,,,0,6,6,7,right,0.834582090378,2016_Feb_09_1305,59.4569032485,beat_2AFC,001,na,
stim/03_pa_hybrid_-30.wav,,,,,0,7,7,3,left,0.417905092239,2016_Feb_09_1305,59.4569032485,beat_2AFC,001,na,
stim/06_pa_hybrid_+00.wav,,,,,0,8,8,6,left,0.482784032822,2016_Feb_09_1305,59.4569032485,beat_2AFC,001,na,
stim/02_pa_hybrid_-40.wav,,,,,0,9,9,2,left,0.451214075089,2016_Feb_09_1305,59.4569032485,beat_2AFC,001,na,
stim/10_pa_hybrid_+40.wav,,,,,0,10,10,10,right,0.367579936981,2016_Feb_09_1305,59.4569032485,beat_2AFC,001,na,
stim/00_pa_hybrid_-60.wav,,,,,0,11,11,0,left,0.467116832733,2016_Feb_09_1305,59.4569032485,beat_2AFC,001,na,
stim/05_pa_hybrid_-10.wav,,,,,0,12,12,5,left,0.534253835678,2016_Feb_09_1305,59.4569032485,beat_2AFC,001,na,
stim/06_pa_hybrid_+00.wav,,,,,1,0,13,6,right,0.467646121979,2016_Feb_09_1305,59.4569032485,beat_2AFC,001,na,
stim/07_pa_hybrid_+10.wav,,,,,1,1,14,7,left,0.451225042343,2016_Feb_09_1305,59.4569032485,beat_2AFC,001,na,
stim/04_pa_hybrid_-20.wav,,,,,1,2,15,4,left,0.384611845016,2016_Feb_09_1305,59.4569032485,beat_2AFC,001,na,
stim/05_pa_hybrid_-10.wav,,,,,1,3,16,5,left,0.384439945221,2016_Feb_09_1305,59.4569032485,beat_2AFC,001,na,
stim/00_pa_hybrid_-60.wav,,,,,1,4,17,0,left,0.401194095612,2016_Feb_09_1305,59.4569032485,beat_2AFC,001,na,
stim/11_pa_hybrid_+50.wav,,,,,1,5,18,11,right,0.401031970978,2016_Feb_09_1305,59.4569032485,beat_2AFC,001,na,
stim/10_pa_hybrid_+40.wav,,,,,1,6,19,10,right,0.615869998932,2016_Feb_09_1305,59.4569032485,beat_2AFC,001,na,
stim/08_pa_hybrid_+20.wav,,,,,1,7,20,8,right,0.667767047882,2016_Feb_09_1305,59.4569032485,beat_2AFC,001,na,
stim/03_pa_hybrid_-30.wav,,,,,1,8,21,3,left,0.400951862335,2016_Feb_09_1305,59.4569032485,beat_2AFC,001,na,
stim/09_pa_hybrid_+30.wav,,,,,1,9,22,9,right,0.817874908447,2016_Feb_09_1305,59.4569032485,beat_2AFC,001,na,
stim/01_pa_hybrid_-50.wav,,,,,1,10,23,1,left,0.65145111084,2016_Feb_09_1305,59.4569032485,beat_2AFC,001,na,
stim/12_pa_hybrid_+60.wav,,,,,1,11,24,12,right,0.467743873596,2016_Feb_09_1305,59.4569032485,beat_2AFC,001,na,
stim/02_pa_hybrid_-40.wav,,,,,1,12,25,2,left,0.518066883087,2016_Feb_09_1305,59.4569032485,beat_2AFC,001,na,
stim/12_pa_hybrid_+60.wav,,,,,2,0,26,12,right,0.501199960709,2016_Feb_09_1305,59.4569032485,beat_2AFC,001,na,
stim/06_pa_hybrid_+00.wav,,,,,2,1,27,6,left,0.451025009155,2016_Feb_09_1305,59.4569032485,beat_2AFC,001,na,
stim/01_pa_hybrid_-50.wav,,,,,2,2,28,1,left,0.616038799286,2016_Feb_09_1305,59.4569032485,beat_2AFC,001,na,
stim/04_pa_hybrid_-20.wav,,,,,2,3,29,4,left,0.501214981079,2016_Feb_09_1305,59.4569032485,beat_2AFC,001,na,
stim/02_pa_hybrid_-40.wav,,,,,2,4,30,2,left,0.434355020523,2016_Feb_09_1305,59.4569032485,beat_2AFC,001,na,
stim/10_pa_hybrid_+40.wav,,,,,2,5,31,10,right,0.484496116638,2016_Feb_09_1305,59.4569032485,beat_2AFC,001,na,
stim/05_pa_hybrid_-10.wav,,,,,2,6,32,5,left,0.567771911621,2016_Feb_09_1305,59.4569032485,beat_2AFC,001,na,
stim/07_pa_hybrid_+10.wav,,,,,2,7,33,7,right,0.517838001251,2016_Feb_09_1305,59.4569032485,beat_2AFC,001,na,
stim/08_pa_hybrid_+20.wav,,,,,2,8,34,8,right,0.532468080521,2016_Feb_09_1305,59.4569032485,beat_2AFC,001,na,
stim/03_pa_hybrid_-30.wav,,,,,2,9,35,3,left,0.434555053711,2016_Feb_09_1305,59.4569032485,beat_2AFC,001,na,
stim/11_pa_hybrid_+50.wav,,,,,2,10,36,11,right,0.467867851257,2016_Feb_09_1305,59.4569032485,beat_2AFC,001,na,
stim/00_pa_hybrid_-60.wav,,,,,2,11,37,0,left,0.517352104187,2016_Feb_09_1305,59.4569032485,beat_2AFC,001,na,
stim/09_pa_hybrid_+30.wav,,,,,2,12,38,9,right,0.534440994263,2016_Feb_09_1305,59.4569032485,beat_2AFC,001,na,
stim/05_pa_hybrid_-10.wav,,,,,3,0,39,5,left,0.501091003418,2016_Feb_09_1305,59.4569032485,beat_2AFC,001,na,
stim/09_pa_hybrid_+30.wav,,,,,3,1,40,9,right,0.399338006973,2016_Feb_09_1305,59.4569032485,beat_2AFC,001,na,
stim/00_pa_hybrid_-60.wav,,,,,3,2,41,0,left,0.634371042252,2016_Feb_09_1305,59.4569032485,beat_2AFC,001,na,
stim/11_pa_hybrid_+50.wav,,,,,3,3,42,11,right,0.550915002823,2016_Feb_09_1305,59.4569032485,beat_2AFC,001,na,
stim/08_pa_hybrid_+20.wav,,,,,3,4,43,8,right,0.45120215416,2016_Feb_09_1305,59.4569032485,beat_2AFC,001,na,
stim/02_pa_hybrid_-40.wav,,,,,3,5,44,2,left,0.534492015839,2016_Feb_09_1305,59.4569032485,beat_2AFC,001,na,
stim/03_pa_hybrid_-30.wav,,,,,3,6,45,3,left,0.584614992142,2016_Feb_09_1305,59.4569032485,beat_2AFC,001,na,
stim/12_pa_hybrid_+60.wav,,,,,3,7,46,12,right,0.482619047165,2016_Feb_09_1305,59.4569032485,beat_2AFC,001,na,
stim/07_pa_hybrid_+10.wav,,,,,3,8,47,7,right,0.634334087372,2016_Feb_09_1305,59.4569032485,beat_2AFC,001,na,
stim/10_pa_hybrid_+40.wav,,,,,3,9,48,10,right,0.615952968597,2016_Feb_09_1305,59.4569032485,beat_2AFC,001,na,
stim/01_pa_hybrid_-50.wav,,,,,3,10,49,1,left,0.734622001648,2016_Feb_09_1305,59.4569032485,beat_2AFC,001,na,
stim/04_pa_hybrid_-20.wav,,,,,3,11,50,4,left,0.50053191185,2016_Feb_09_1305,59.4569032485,beat_2AFC,001,na,
stim/06_pa_hybrid_+00.wav,,,,,3,12,51,6,right,0.684597015381,2016_Feb_09_1305,59.4569032485,beat_2AFC,001,na,
stim/07_pa_hybrid_+10.wav,,,,,4,0,52,7,right,0.567792892456,2016_Feb_09_1305,59.4569032485,beat_2AFC,001,na,
stim/12_pa_hybrid_+60.wav,,,,,4,1,53,12,right,0.584529161453,2016_Feb_09_1305,59.4569032485,beat_2AFC,001,na,
stim/11_pa_hybrid_+50.wav,,,,,4,2,54,11,right,0.551123857498,2016_Feb_09_1305,59.4569032485,beat_2AFC,001,na,
stim/05_pa_hybrid_-10.wav,,,,,4,3,55,5,left,0.500995159149,2016_Feb_09_1305,59.4569032485,beat_2AFC,001,na,
stim/06_pa_hybrid_+00.wav,,,,,4,4,56,6,left,0.534342050552,2016_Feb_09_1305,59.4569032485,beat_2AFC,001,na,
stim/02_pa_hybrid_-40.wav,,,,,4,5,57,2,left,0.482640981674,2016_Feb_09_1305,59.4569032485,beat_2AFC,001,na,
stim/03_pa_hybrid_-30.wav,,,,,4,6,58,3,left,0.434343099594,2016_Feb_09_1305,59.4569032485,beat_2AFC,001,na,
stim/00_pa_hybrid_-60.wav,,,,,4,7,59,0,left,0.467669963837,2016_Feb_09_1305,59.4569032485,beat_2AFC,001,na,
stim/01_pa_hybrid_-50.wav,,,,,4,8,60,1,left,0.400961875916,2016_Feb_09_1305,59.4569032485,beat_2AFC,001,na,
stim/04_pa_hybrid_-20.wav,,,,,4,9,61,4,left,0.400616884232,2016_Feb_09_1305,59.4569032485,beat_2AFC,001,na,
stim/08_pa_hybrid_+20.wav,,,,,4,10,62,8,right,0.46777009964,2016_Feb_09_1305,59.4569032485,beat_2AFC,001,na,
stim/10_pa_hybrid_+40.wav,,,,,4,11,63,10,right,0.400875091553,2016_Feb_09_1305,59.4569032485,beat_2AFC,001,na,
stim/09_pa_hybrid_+30.wav,,,,,4,12,64,9,right,0.434385061264,2016_Feb_09_1305,59.4569032485,beat_2AFC,001,na,
