stimuli,practice_trial.thisRepN,practice_trial.thisTrialN,practice_trial.thisN,practice_trial.thisIndex,trials.thisRepN,trials.thisTrialN,trials.thisN,trials.thisIndex,key_resp_trial.keys,key_resp_trial.rt,date,frameRate,expName,session,participant,
stim/01_pa_hybrid_-50.wav,0,0,0,1,,,,,,,2016_Feb_09_1302,59.9998855593,beat_2AFC,001,ps,
stim/00_pa_hybrid_-60.wav,0,1,1,0,,,,,,,2016_Feb_09_1302,59.9998855593,beat_2AFC,001,ps,
stim/11_pa_hybrid_+50.wav,0,2,2,2,,,,,,,2016_Feb_09_1302,59.9998855593,beat_2AFC,001,ps,
stim/12_pa_hybrid_+60.wav,0,3,3,3,,,,,,,2016_Feb_09_1302,59.9998855593,beat_2AFC,001,ps,
stim/04_pa_hybrid_-20.wav,,,,,0,0,0,4,left,0.483767032623,2016_Feb_09_1302,59.9998855593,beat_2AFC,001,ps,
stim/05_pa_hybrid_-10.wav,,,,,0,1,1,5,left,0.434153079987,2016_Feb_09_1302,59.9998855593,beat_2AFC,001,ps,
stim/00_pa_hybrid_-60.wav,,,,,0,2,2,0,left,0.384328126907,2016_Feb_09_1302,59.9998855593,beat_2AFC,001,ps,
stim/10_pa_hybrid_+40.wav,,,,,0,3,3,10,right,0.300826072693,2016_Feb_09_1302,59.9998855593,beat_2AFC,001,ps,
stim/06_pa_hybrid_+00.wav,,,,,0,4,4,6,left,0.517639875412,2016_Feb_09_1302,59.9998855593,beat_2AFC,001,ps,
stim/01_pa_hybrid_-50.wav,,,,,0,5,5,1,left,0.434273958206,2016_Feb_09_1302,59.9998855593,beat_2AFC,001,ps,
stim/03_pa_hybrid_-30.wav,,,,,0,6,6,3,left,0.384088039398,2016_Feb_09_1302,59.9998855593,beat_2AFC,001,ps,
stim/02_pa_hybrid_-40.wav,,,,,0,7,7,2,left,0.383544921875,2016_Feb_09_1302,59.9998855593,beat_2AFC,001,ps,
stim/09_pa_hybrid_+30.wav,,,,,0,8,8,9,right,0.367254018784,2016_Feb_09_1302,59.9998855593,beat_2AFC,001,ps,
stim/11_pa_hybrid_+50.wav,,,,,0,9,9,11,right,0.367645978928,2016_Feb_09_1302,59.9998855593,beat_2AFC,001,ps,
stim/12_pa_hybrid_+60.wav,,,,,0,10,10,12,right,0.350780010223,2016_Feb_09_1302,59.9998855593,beat_2AFC,001,ps,
stim/08_pa_hybrid_+20.wav,,,,,0,11,11,8,right,0.384038925171,2016_Feb_09_1302,59.9998855593,beat_2AFC,001,ps,
stim/07_pa_hybrid_+10.wav,,,,,0,12,12,7,left,0.650756120682,2016_Feb_09_1302,59.9998855593,beat_2AFC,001,ps,
stim/02_pa_hybrid_-40.wav,,,,,1,0,13,2,left,0.550786972046,2016_Feb_09_1302,59.9998855593,beat_2AFC,001,ps,
stim/05_pa_hybrid_-10.wav,,,,,1,1,14,5,left,0.434216022491,2016_Feb_09_1302,59.9998855593,beat_2AFC,001,ps,
stim/04_pa_hybrid_-20.wav,,,,,1,2,15,4,left,0.36741399765,2016_Feb_09_1302,59.9998855593,beat_2AFC,001,ps,
stim/09_pa_hybrid_+30.wav,,,,,1,3,16,9,right,0.416984081268,2016_Feb_09_1302,59.9998855593,beat_2AFC,001,ps,
stim/00_pa_hybrid_-60.wav,,,,,1,4,17,0,left,0.350033998489,2016_Feb_09_1302,59.9998855593,beat_2AFC,001,ps,
stim/08_pa_hybrid_+20.wav,,,,,1,5,18,8,left,0.450614929199,2016_Feb_09_1302,59.9998855593,beat_2AFC,001,ps,
stim/12_pa_hybrid_+60.wav,,,,,1,6,19,12,right,0.450472831726,2016_Feb_09_1302,59.9998855593,beat_2AFC,001,ps,
stim/03_pa_hybrid_-30.wav,,,,,1,7,20,3,left,0.434383153915,2016_Feb_09_1302,59.9998855593,beat_2AFC,001,ps,
stim/01_pa_hybrid_-50.wav,,,,,1,8,21,1,left,0.484218120575,2016_Feb_09_1302,59.9998855593,beat_2AFC,001,ps,
stim/10_pa_hybrid_+40.wav,,,,,1,9,22,10,right,0.300657987595,2016_Feb_09_1302,59.9998855593,beat_2AFC,001,ps,
stim/07_pa_hybrid_+10.wav,,,,,1,10,23,7,left,0.567407846451,2016_Feb_09_1302,59.9998855593,beat_2AFC,001,ps,
stim/06_pa_hybrid_+00.wav,,,,,1,11,24,6,left,0.450042963028,2016_Feb_09_1302,59.9998855593,beat_2AFC,001,ps,
stim/11_pa_hybrid_+50.wav,,,,,1,12,25,11,right,0.350754022598,2016_Feb_09_1302,59.9998855593,beat_2AFC,001,ps,
stim/08_pa_hybrid_+20.wav,,,,,2,0,26,8,right,0.451144218445,2016_Feb_09_1302,59.9998855593,beat_2AFC,001,ps,
stim/02_pa_hybrid_-40.wav,,,,,2,1,27,2,left,0.433148860931,2016_Feb_09_1302,59.9998855593,beat_2AFC,001,ps,
stim/06_pa_hybrid_+00.wav,,,,,2,2,28,6,left,0.683398008347,2016_Feb_09_1302,59.9998855593,beat_2AFC,001,ps,
stim/11_pa_hybrid_+50.wav,,,,,2,3,29,11,right,0.434295892715,2016_Feb_09_1302,59.9998855593,beat_2AFC,001,ps,
stim/01_pa_hybrid_-50.wav,,,,,2,4,30,1,left,0.466977119446,2016_Feb_09_1302,59.9998855593,beat_2AFC,001,ps,
stim/09_pa_hybrid_+30.wav,,,,,2,5,31,9,right,0.600394010544,2016_Feb_09_1302,59.9998855593,beat_2AFC,001,ps,
stim/12_pa_hybrid_+60.wav,,,,,2,6,32,12,right,0.417480945587,2016_Feb_09_1302,59.9998855593,beat_2AFC,001,ps,
stim/04_pa_hybrid_-20.wav,,,,,2,7,33,4,left,0.384285926819,2016_Feb_09_1302,59.9998855593,beat_2AFC,001,ps,
stim/10_pa_hybrid_+40.wav,,,,,2,8,34,10,right,0.367113828659,2016_Feb_09_1302,59.9998855593,beat_2AFC,001,ps,
stim/03_pa_hybrid_-30.wav,,,,,2,9,35,3,left,0.350743055344,2016_Feb_09_1302,59.9998855593,beat_2AFC,001,ps,
stim/05_pa_hybrid_-10.wav,,,,,2,10,36,5,left,0.367155075073,2016_Feb_09_1302,59.9998855593,beat_2AFC,001,ps,
stim/00_pa_hybrid_-60.wav,,,,,2,11,37,0,left,0.45157289505,2016_Feb_09_1302,59.9998855593,beat_2AFC,001,ps,
stim/07_pa_hybrid_+10.wav,,,,,2,12,38,7,right,0.566939115524,2016_Feb_09_1302,59.9998855593,beat_2AFC,001,ps,
stim/01_pa_hybrid_-50.wav,,,,,3,0,39,1,left,0.450296878815,2016_Feb_09_1302,59.9998855593,beat_2AFC,001,ps,
stim/07_pa_hybrid_+10.wav,,,,,3,1,40,7,right,0.400521993637,2016_Feb_09_1302,59.9998855593,beat_2AFC,001,ps,
stim/02_pa_hybrid_-40.wav,,,,,3,2,41,2,left,0.451220035553,2016_Feb_09_1302,59.9998855593,beat_2AFC,001,ps,
stim/10_pa_hybrid_+40.wav,,,,,3,3,42,10,right,0.384135007858,2016_Feb_09_1302,59.9998855593,beat_2AFC,001,ps,
stim/12_pa_hybrid_+60.wav,,,,,3,4,43,12,right,0.500486850739,2016_Feb_09_1302,59.9998855593,beat_2AFC,001,ps,
stim/11_pa_hybrid_+50.wav,,,,,3,5,44,11,right,0.38467502594,2016_Feb_09_1302,59.9998855593,beat_2AFC,001,ps,
stim/00_pa_hybrid_-60.wav,,,,,3,6,45,0,left,0.433811903,2016_Feb_09_1302,59.9998855593,beat_2AFC,001,ps,
stim/09_pa_hybrid_+30.wav,,,,,3,7,46,9,right,0.451266050339,2016_Feb_09_1302,59.9998855593,beat_2AFC,001,ps,
stim/06_pa_hybrid_+00.wav,,,,,3,8,47,6,left,0.566600084305,2016_Feb_09_1302,59.9998855593,beat_2AFC,001,ps,
stim/04_pa_hybrid_-20.wav,,,,,3,9,48,4,left,0.417781829834,2016_Feb_09_1302,59.9998855593,beat_2AFC,001,ps,
stim/05_pa_hybrid_-10.wav,,,,,3,10,49,5,left,0.467492818832,2016_Feb_09_1302,59.9998855593,beat_2AFC,001,ps,
stim/03_pa_hybrid_-30.wav,,,,,3,11,50,3,left,0.433673143387,2016_Feb_09_1302,59.9998855593,beat_2AFC,001,ps,
stim/08_pa_hybrid_+20.wav,,,,,3,12,51,8,left,0.43444108963,2016_Feb_09_1302,59.9998855593,beat_2AFC,001,ps,
stim/04_pa_hybrid_-20.wav,,,,,4,0,52,4,left,0.500997066498,2016_Feb_09_1302,59.9998855593,beat_2AFC,001,ps,
stim/07_pa_hybrid_+10.wav,,,,,4,1,53,7,right,0.45152592659,2016_Feb_09_1302,59.9998855593,beat_2AFC,001,ps,
stim/03_pa_hybrid_-30.wav,,,,,4,2,54,3,left,0.58441400528,2016_Feb_09_1302,59.9998855593,beat_2AFC,001,ps,
stim/01_pa_hybrid_-50.wav,,,,,4,3,55,1,left,0.384742021561,2016_Feb_09_1302,59.9998855593,beat_2AFC,001,ps,
stim/06_pa_hybrid_+00.wav,,,,,4,4,56,6,left,0.484509944916,2016_Feb_09_1302,59.9998855593,beat_2AFC,001,ps,
stim/09_pa_hybrid_+30.wav,,,,,4,5,57,9,right,0.350237131119,2016_Feb_09_1302,59.9998855593,beat_2AFC,001,ps,
stim/02_pa_hybrid_-40.wav,,,,,4,6,58,2,left,0.383473157883,2016_Feb_09_1302,59.9998855593,beat_2AFC,001,ps,
stim/05_pa_hybrid_-10.wav,,,,,4,7,59,5,left,0.484345197678,2016_Feb_09_1302,59.9998855593,beat_2AFC,001,ps,
stim/11_pa_hybrid_+50.wav,,,,,4,8,60,11,right,0.333575963974,2016_Feb_09_1302,59.9998855593,beat_2AFC,001,ps,
stim/12_pa_hybrid_+60.wav,,,,,4,9,61,12,right,0.450908184052,2016_Feb_09_1302,59.9998855593,beat_2AFC,001,ps,
stim/00_pa_hybrid_-60.wav,,,,,4,10,62,0,left,0.451205015182,2016_Feb_09_1302,59.9998855593,beat_2AFC,001,ps,
stim/08_pa_hybrid_+20.wav,,,,,4,11,63,8,right,0.617933988571,2016_Feb_09_1302,59.9998855593,beat_2AFC,001,ps,
stim/10_pa_hybrid_+40.wav,,,,,4,12,64,10,right,0.350550174713,2016_Feb_09_1302,59.9998855593,beat_2AFC,001,ps,
