stimuli,practice_trial.thisRepN,practice_trial.thisTrialN,practice_trial.thisN,practice_trial.thisIndex,trials.thisRepN,trials.thisTrialN,trials.thisN,trials.thisIndex,key_resp_trial.keys,key_resp_trial.rt,date,frameRate,expName,session,participant,
stim/11_pa_hybrid_+50.wav,0,0,0,2,,,,,,,2016_Feb_09_1301,60.1659104634,beat_2AFC,001,tw,
stim/12_pa_hybrid_+60.wav,0,1,1,3,,,,,,,2016_Feb_09_1301,60.1659104634,beat_2AFC,001,tw,
stim/01_pa_hybrid_-50.wav,0,2,2,1,,,,,,,2016_Feb_09_1301,60.1659104634,beat_2AFC,001,tw,
stim/00_pa_hybrid_-60.wav,0,3,3,0,,,,,,,2016_Feb_09_1301,60.1659104634,beat_2AFC,001,tw,
stim/07_pa_hybrid_+10.wav,,,,,0,0,0,7,right,0.6012840271,2016_Feb_09_1301,60.1659104634,beat_2AFC,001,tw,
stim/04_pa_hybrid_-20.wav,,,,,0,1,1,4,left,0.484324932098,2016_Feb_09_1301,60.1659104634,beat_2AFC,001,tw,
stim/08_pa_hybrid_+20.wav,,,,,0,2,2,8,right,0.534654855728,2016_Feb_09_1301,60.1659104634,beat_2AFC,001,tw,
stim/06_pa_hybrid_+00.wav,,,,,0,3,3,6,left,0.51761007309,2016_Feb_09_1301,60.1659104634,beat_2AFC,001,tw,
stim/01_pa_hybrid_-50.wav,,,,,0,4,4,1,left,0.451275110245,2016_Feb_09_1301,60.1659104634,beat_2AFC,001,tw,
stim/11_pa_hybrid_+50.wav,,,,,0,5,5,11,right,0.384445905685,2016_Feb_09_1301,60.1659104634,beat_2AFC,001,tw,
stim/00_pa_hybrid_-60.wav,,,,,0,6,6,0,left,0.584547042847,2016_Feb_09_1301,60.1659104634,beat_2AFC,001,tw,
stim/12_pa_hybrid_+60.wav,,,,,0,7,7,12,right,0.499346971512,2016_Feb_09_1301,60.1659104634,beat_2AFC,001,tw,
stim/10_pa_hybrid_+40.wav,,,,,0,8,8,10,right,0.417877912521,2016_Feb_09_1301,60.1659104634,beat_2AFC,001,tw,
stim/03_pa_hybrid_-30.wav,,,,,0,9,9,3,left,0.384241819382,2016_Feb_09_1301,60.1659104634,beat_2AFC,001,tw,
stim/05_pa_hybrid_-10.wav,,,,,0,10,10,5,right,0.633762121201,2016_Feb_09_1301,60.1659104634,beat_2AFC,001,tw,
stim/09_pa_hybrid_+30.wav,,,,,0,11,11,9,right,0.567695856094,2016_Feb_09_1301,60.1659104634,beat_2AFC,001,tw,
stim/02_pa_hybrid_-40.wav,,,,,0,12,12,2,left,0.434210062027,2016_Feb_09_1301,60.1659104634,beat_2AFC,001,tw,
stim/05_pa_hybrid_-10.wav,,,,,1,0,13,5,left,0.501420974731,2016_Feb_09_1301,60.1659104634,beat_2AFC,001,tw,
stim/12_pa_hybrid_+60.wav,,,,,1,1,14,12,right,0.417648077011,2016_Feb_09_1301,60.1659104634,beat_2AFC,001,tw,
stim/01_pa_hybrid_-50.wav,,,,,1,2,15,1,left,0.482619047165,2016_Feb_09_1301,60.1659104634,beat_2AFC,001,tw,
stim/03_pa_hybrid_-30.wav,,,,,1,3,16,3,left,0.434406995773,2016_Feb_09_1301,60.1659104634,beat_2AFC,001,tw,
stim/07_pa_hybrid_+10.wav,,,,,1,4,17,7,right,0.35098195076,2016_Feb_09_1301,60.1659104634,beat_2AFC,001,tw,
stim/08_pa_hybrid_+20.wav,,,,,1,5,18,8,right,0.449132204056,2016_Feb_09_1301,60.1659104634,beat_2AFC,001,tw,
stim/02_pa_hybrid_-40.wav,,,,,1,6,19,2,left,0.484345912933,2016_Feb_09_1301,60.1659104634,beat_2AFC,001,tw,
stim/00_pa_hybrid_-60.wav,,,,,1,7,20,0,left,0.450231075287,2016_Feb_09_1301,60.1659104634,beat_2AFC,001,tw,
stim/09_pa_hybrid_+30.wav,,,,,1,8,21,9,right,0.348953008652,2016_Feb_09_1301,60.1659104634,beat_2AFC,001,tw,
stim/10_pa_hybrid_+40.wav,,,,,1,9,22,10,right,0.35081410408,2016_Feb_09_1301,60.1659104634,beat_2AFC,001,tw,
stim/04_pa_hybrid_-20.wav,,,,,1,10,23,4,left,0.382469892502,2016_Feb_09_1301,60.1659104634,beat_2AFC,001,tw,
stim/06_pa_hybrid_+00.wav,,,,,1,11,24,6,left,0.36772608757,2016_Feb_09_1301,60.1659104634,beat_2AFC,001,tw,
stim/11_pa_hybrid_+50.wav,,,,,1,12,25,11,right,0.433968067169,2016_Feb_09_1301,60.1659104634,beat_2AFC,001,tw,
stim/04_pa_hybrid_-20.wav,,,,,2,0,26,4,left,0.382488965988,2016_Feb_09_1301,60.1659104634,beat_2AFC,001,tw,
stim/06_pa_hybrid_+00.wav,,,,,2,1,27,6,left,0.434473991394,2016_Feb_09_1301,60.1659104634,beat_2AFC,001,tw,
stim/10_pa_hybrid_+40.wav,,,,,2,2,28,10,right,0.617925167084,2016_Feb_09_1301,60.1659104634,beat_2AFC,001,tw,
stim/02_pa_hybrid_-40.wav,,,,,2,3,29,2,left,0.434476137161,2016_Feb_09_1301,60.1659104634,beat_2AFC,001,tw,
stim/01_pa_hybrid_-50.wav,,,,,2,4,30,1,left,0.48467206955,2016_Feb_09_1301,60.1659104634,beat_2AFC,001,tw,
stim/09_pa_hybrid_+30.wav,,,,,2,5,31,9,right,0.40265583992,2016_Feb_09_1301,60.1659104634,beat_2AFC,001,tw,
stim/03_pa_hybrid_-30.wav,,,,,2,6,32,3,left,0.451448202133,2016_Feb_09_1301,60.1659104634,beat_2AFC,001,tw,
stim/08_pa_hybrid_+20.wav,,,,,2,7,33,8,right,0.36798620224,2016_Feb_09_1301,60.1659104634,beat_2AFC,001,tw,
stim/05_pa_hybrid_-10.wav,,,,,2,8,34,5,left,0.351119995117,2016_Feb_09_1301,60.1659104634,beat_2AFC,001,tw,
stim/07_pa_hybrid_+10.wav,,,,,2,9,35,7,right,0.334125995636,2016_Feb_09_1301,60.1659104634,beat_2AFC,001,tw,
stim/11_pa_hybrid_+50.wav,,,,,2,10,36,11,right,0.434225797653,2016_Feb_09_1301,60.1659104634,beat_2AFC,001,tw,
stim/00_pa_hybrid_-60.wav,,,,,2,11,37,0,left,0.451226949692,2016_Feb_09_1301,60.1659104634,beat_2AFC,001,tw,
stim/12_pa_hybrid_+60.wav,,,,,2,12,38,12,right,0.40126490593,2016_Feb_09_1301,60.1659104634,beat_2AFC,001,tw,
stim/03_pa_hybrid_-30.wav,,,,,3,0,39,3,left,0.401218175888,2016_Feb_09_1301,60.1659104634,beat_2AFC,001,tw,
stim/02_pa_hybrid_-40.wav,,,,,3,1,40,2,left,0.451064109802,2016_Feb_09_1301,60.1659104634,beat_2AFC,001,tw,
stim/05_pa_hybrid_-10.wav,,,,,3,2,41,5,left,0.417947053909,2016_Feb_09_1301,60.1659104634,beat_2AFC,001,tw,
stim/10_pa_hybrid_+40.wav,,,,,3,3,42,10,right,0.41760802269,2016_Feb_09_1301,60.1659104634,beat_2AFC,001,tw,
stim/01_pa_hybrid_-50.wav,,,,,3,4,43,1,left,0.367771148682,2016_Feb_09_1301,60.1659104634,beat_2AFC,001,tw,
stim/09_pa_hybrid_+30.wav,,,,,3,5,44,9,right,0.384361028671,2016_Feb_09_1301,60.1659104634,beat_2AFC,001,tw,
stim/06_pa_hybrid_+00.wav,,,,,3,6,45,6,left,0.367948055267,2016_Feb_09_1301,60.1659104634,beat_2AFC,001,tw,
stim/04_pa_hybrid_-20.wav,,,,,3,7,46,4,left,0.351074934006,2016_Feb_09_1301,60.1659104634,beat_2AFC,001,tw,
stim/11_pa_hybrid_+50.wav,,,,,3,8,47,11,right,0.416970014572,2016_Feb_09_1301,60.1659104634,beat_2AFC,001,tw,
stim/12_pa_hybrid_+60.wav,,,,,3,9,48,12,left,0.517885923386,2016_Feb_09_1301,60.1659104634,beat_2AFC,001,tw,
stim/00_pa_hybrid_-60.wav,,,,,3,10,49,0,left,0.400853157043,2016_Feb_09_1301,60.1659104634,beat_2AFC,001,tw,
stim/07_pa_hybrid_+10.wav,,,,,3,11,50,7,left,0.649377822876,2016_Feb_09_1301,60.1659104634,beat_2AFC,001,tw,
stim/08_pa_hybrid_+20.wav,,,,,3,12,51,8,right,0.450783014297,2016_Feb_09_1301,60.1659104634,beat_2AFC,001,tw,
stim/02_pa_hybrid_-40.wav,,,,,4,0,52,2,left,0.484580993652,2016_Feb_09_1301,60.1659104634,beat_2AFC,001,tw,
stim/06_pa_hybrid_+00.wav,,,,,4,1,53,6,left,0.399167776108,2016_Feb_09_1301,60.1659104634,beat_2AFC,001,tw,
stim/00_pa_hybrid_-60.wav,,,,,4,2,54,0,left,0.450906038284,2016_Feb_09_1301,60.1659104634,beat_2AFC,001,tw,
stim/10_pa_hybrid_+40.wav,,,,,4,3,55,10,right,0.434429168701,2016_Feb_09_1301,60.1659104634,beat_2AFC,001,tw,
stim/09_pa_hybrid_+30.wav,,,,,4,4,56,9,left,0.365782976151,2016_Feb_09_1301,60.1659104634,beat_2AFC,001,tw,
stim/07_pa_hybrid_+10.wav,,,,,4,5,57,7,left,0.766129016876,2016_Feb_09_1301,60.1659104634,beat_2AFC,001,tw,
stim/03_pa_hybrid_-30.wav,,,,,4,6,58,3,left,0.550994157791,2016_Feb_09_1301,60.1659104634,beat_2AFC,001,tw,
stim/12_pa_hybrid_+60.wav,,,,,4,7,59,12,right,0.451086044312,2016_Feb_09_1301,60.1659104634,beat_2AFC,001,tw,
stim/11_pa_hybrid_+50.wav,,,,,4,8,60,11,right,0.515763998032,2016_Feb_09_1301,60.1659104634,beat_2AFC,001,tw,
stim/05_pa_hybrid_-10.wav,,,,,4,9,61,5,left,0.465875148773,2016_Feb_09_1301,60.1659104634,beat_2AFC,001,tw,
stim/01_pa_hybrid_-50.wav,,,,,4,10,62,1,left,0.467604875565,2016_Feb_09_1301,60.1659104634,beat_2AFC,001,tw,
stim/08_pa_hybrid_+20.wav,,,,,4,11,63,8,right,0.45094704628,2016_Feb_09_1301,60.1659104634,beat_2AFC,001,tw,
stim/04_pa_hybrid_-20.wav,,,,,4,12,64,4,left,0.484374046326,2016_Feb_09_1301,60.1659104634,beat_2AFC,001,tw,
