stimuli,practice_trial.thisRepN,practice_trial.thisTrialN,practice_trial.thisN,practice_trial.thisIndex,trials.thisRepN,trials.thisTrialN,trials.thisN,trials.thisIndex,key_resp_trial.keys,key_resp_trial.rt,date,frameRate,expName,session,participant,
stim/00_pa_hybrid_-60.wav,0,0,0,0,,,,,,,2016_Feb_07_1617,60.1055568532,beat_2AFC,001,vc,
stim/01_pa_hybrid_-50.wav,0,1,1,1,,,,,,,2016_Feb_07_1617,60.1055568532,beat_2AFC,001,vc,
stim/11_pa_hybrid_+50.wav,0,2,2,2,,,,,,,2016_Feb_07_1617,60.1055568532,beat_2AFC,001,vc,
stim/12_pa_hybrid_+60.wav,0,3,3,3,,,,,,,2016_Feb_07_1617,60.1055568532,beat_2AFC,001,vc,
stim/01_pa_hybrid_-50.wav,,,,,0,0,0,1,left,0.484665870667,2016_Feb_07_1617,60.1055568532,beat_2AFC,001,vc,
stim/12_pa_hybrid_+60.wav,,,,,0,1,1,12,right,0.484172105789,2016_Feb_07_1617,60.1055568532,beat_2AFC,001,vc,
stim/06_pa_hybrid_+00.wav,,,,,0,2,2,6,left,0.397810935974,2016_Feb_07_1617,60.1055568532,beat_2AFC,001,vc,
stim/10_pa_hybrid_+40.wav,,,,,0,3,3,10,right,0.401705980301,2016_Feb_07_1617,60.1055568532,beat_2AFC,001,vc,
stim/00_pa_hybrid_-60.wav,,,,,0,4,4,0,left,0.432978868484,2016_Feb_07_1617,60.1055568532,beat_2AFC,001,vc,
stim/08_pa_hybrid_+20.wav,,,,,0,5,5,8,right,0.367514133453,2016_Feb_07_1617,60.1055568532,beat_2AFC,001,vc,
stim/09_pa_hybrid_+30.wav,,,,,0,6,6,9,right,0.45111989975,2016_Feb_07_1617,60.1055568532,beat_2AFC,001,vc,
stim/11_pa_hybrid_+50.wav,,,,,0,7,7,11,right,0.44796204567,2016_Feb_07_1617,60.1055568532,beat_2AFC,001,vc,
stim/02_pa_hybrid_-40.wav,,,,,0,8,8,2,left,0.367954969406,2016_Feb_07_1617,60.1055568532,beat_2AFC,001,vc,
stim/04_pa_hybrid_-20.wav,,,,,0,9,9,4,left,0.447205066681,2016_Feb_07_1617,60.1055568532,beat_2AFC,001,vc,
stim/05_pa_hybrid_-10.wav,,,,,0,10,10,5,left,0.547101020813,2016_Feb_07_1617,60.1055568532,beat_2AFC,001,vc,
stim/07_pa_hybrid_+10.wav,,,,,0,11,11,7,right,0.630748987198,2016_Feb_07_1617,60.1055568532,beat_2AFC,001,vc,
stim/03_pa_hybrid_-30.wav,,,,,0,12,12,3,left,0.480921030045,2016_Feb_07_1617,60.1055568532,beat_2AFC,001,vc,
stim/05_pa_hybrid_-10.wav,,,,,1,0,13,5,left,0.468757867813,2016_Feb_07_1617,60.1055568532,beat_2AFC,001,vc,
stim/04_pa_hybrid_-20.wav,,,,,1,1,14,4,left,0.453946828842,2016_Feb_07_1617,60.1055568532,beat_2AFC,001,vc,
stim/12_pa_hybrid_+60.wav,,,,,1,2,15,12,right,0.500272989273,2016_Feb_07_1617,60.1055568532,beat_2AFC,001,vc,
stim/11_pa_hybrid_+50.wav,,,,,1,3,16,11,right,0.535071849823,2016_Feb_07_1617,60.1055568532,beat_2AFC,001,vc,
stim/06_pa_hybrid_+00.wav,,,,,1,4,17,6,left,0.468626976013,2016_Feb_07_1617,60.1055568532,beat_2AFC,001,vc,
stim/01_pa_hybrid_-50.wav,,,,,1,5,18,1,left,0.430700063705,2016_Feb_07_1617,60.1055568532,beat_2AFC,001,vc,
stim/00_pa_hybrid_-60.wav,,,,,1,6,19,0,left,0.470527887344,2016_Feb_07_1617,60.1055568532,beat_2AFC,001,vc,
stim/10_pa_hybrid_+40.wav,,,,,1,7,20,10,right,0.366722106934,2016_Feb_07_1617,60.1055568532,beat_2AFC,001,vc,
stim/08_pa_hybrid_+20.wav,,,,,1,8,21,8,right,0.951097011566,2016_Feb_07_1617,60.1055568532,beat_2AFC,001,vc,
stim/02_pa_hybrid_-40.wav,,,,,1,9,22,2,left,0.450817108154,2016_Feb_07_1617,60.1055568532,beat_2AFC,001,vc,
stim/09_pa_hybrid_+30.wav,,,,,1,10,23,9,right,0.547927856445,2016_Feb_07_1617,60.1055568532,beat_2AFC,001,vc,
stim/07_pa_hybrid_+10.wav,,,,,1,11,24,7,left,0.850917100906,2016_Feb_07_1617,60.1055568532,beat_2AFC,001,vc,
stim/03_pa_hybrid_-30.wav,,,,,1,12,25,3,left,0.480541944504,2016_Feb_07_1617,60.1055568532,beat_2AFC,001,vc,
stim/05_pa_hybrid_-10.wav,,,,,2,0,26,5,left,0.548228979111,2016_Feb_07_1617,60.1055568532,beat_2AFC,001,vc,
stim/07_pa_hybrid_+10.wav,,,,,2,1,27,7,left,0.853996038437,2016_Feb_07_1617,60.1055568532,beat_2AFC,001,vc,
stim/11_pa_hybrid_+50.wav,,,,,2,2,28,11,right,0.381215810776,2016_Feb_07_1617,60.1055568532,beat_2AFC,001,vc,
stim/00_pa_hybrid_-60.wav,,,,,2,3,29,0,left,0.60049200058,2016_Feb_07_1617,60.1055568532,beat_2AFC,001,vc,
stim/10_pa_hybrid_+40.wav,,,,,2,4,30,10,right,0.568487882614,2016_Feb_07_1617,60.1055568532,beat_2AFC,001,vc,
stim/09_pa_hybrid_+30.wav,,,,,2,5,31,9,right,0.501465797424,2016_Feb_07_1617,60.1055568532,beat_2AFC,001,vc,
stim/01_pa_hybrid_-50.wav,,,,,2,6,32,1,left,0.517218112946,2016_Feb_07_1617,60.1055568532,beat_2AFC,001,vc,
stim/12_pa_hybrid_+60.wav,,,,,2,7,33,12,right,0.434448003769,2016_Feb_07_1617,60.1055568532,beat_2AFC,001,vc,
stim/03_pa_hybrid_-30.wav,,,,,2,8,34,3,left,0.451211929321,2016_Feb_07_1617,60.1055568532,beat_2AFC,001,vc,
stim/06_pa_hybrid_+00.wav,,,,,2,9,35,6,left,0.564760923386,2016_Feb_07_1617,60.1055568532,beat_2AFC,001,vc,
stim/08_pa_hybrid_+20.wav,,,,,2,10,36,8,right,0.531264066696,2016_Feb_07_1617,60.1055568532,beat_2AFC,001,vc,
stim/02_pa_hybrid_-40.wav,,,,,2,11,37,2,left,0.631204128265,2016_Feb_07_1617,60.1055568532,beat_2AFC,001,vc,
stim/04_pa_hybrid_-20.wav,,,,,2,12,38,4,left,0.551720142365,2016_Feb_07_1617,60.1055568532,beat_2AFC,001,vc,
stim/10_pa_hybrid_+40.wav,,,,,3,0,39,10,right,0.584953069687,2016_Feb_07_1617,60.1055568532,beat_2AFC,001,vc,
stim/07_pa_hybrid_+10.wav,,,,,3,1,40,7,left,0.549582004547,2016_Feb_07_1617,60.1055568532,beat_2AFC,001,vc,
stim/04_pa_hybrid_-20.wav,,,,,3,2,41,4,left,0.45147395134,2016_Feb_07_1617,60.1055568532,beat_2AFC,001,vc,
stim/02_pa_hybrid_-40.wav,,,,,3,3,42,2,left,0.417752027512,2016_Feb_07_1617,60.1055568532,beat_2AFC,001,vc,
stim/09_pa_hybrid_+30.wav,,,,,3,4,43,9,right,0.518378019333,2016_Feb_07_1617,60.1055568532,beat_2AFC,001,vc,
stim/05_pa_hybrid_-10.wav,,,,,3,5,44,5,left,0.39718413353,2016_Feb_07_1617,60.1055568532,beat_2AFC,001,vc,
stim/00_pa_hybrid_-60.wav,,,,,3,6,45,0,left,0.549268007278,2016_Feb_07_1617,60.1055568532,beat_2AFC,001,vc,
stim/08_pa_hybrid_+20.wav,,,,,3,7,46,8,right,0.46749997139,2016_Feb_07_1617,60.1055568532,beat_2AFC,001,vc,
stim/12_pa_hybrid_+60.wav,,,,,3,8,47,12,right,0.537735939026,2016_Feb_07_1617,60.1055568532,beat_2AFC,001,vc,
stim/01_pa_hybrid_-50.wav,,,,,3,9,48,1,left,0.40109205246,2016_Feb_07_1617,60.1055568532,beat_2AFC,001,vc,
stim/03_pa_hybrid_-30.wav,,,,,3,10,49,3,left,0.601239919662,2016_Feb_07_1617,60.1055568532,beat_2AFC,001,vc,
stim/06_pa_hybrid_+00.wav,,,,,3,11,50,6,left,0.567754030228,2016_Feb_07_1617,60.1055568532,beat_2AFC,001,vc,
stim/11_pa_hybrid_+50.wav,,,,,3,12,51,11,right,0.464130878448,2016_Feb_07_1617,60.1055568532,beat_2AFC,001,vc,
stim/10_pa_hybrid_+40.wav,,,,,4,0,52,10,right,0.534641027451,2016_Feb_07_1617,60.1055568532,beat_2AFC,001,vc,
stim/05_pa_hybrid_-10.wav,,,,,4,1,53,5,left,0.41380906105,2016_Feb_07_1617,60.1055568532,beat_2AFC,001,vc,
stim/02_pa_hybrid_-40.wav,,,,,4,2,54,2,left,0.501103878021,2016_Feb_07_1617,60.1055568532,beat_2AFC,001,vc,
stim/07_pa_hybrid_+10.wav,,,,,4,3,55,7,right,0.501255989075,2016_Feb_07_1617,60.1055568532,beat_2AFC,001,vc,
stim/01_pa_hybrid_-50.wav,,,,,4,4,56,1,left,0.464407920837,2016_Feb_07_1617,60.1055568532,beat_2AFC,001,vc,
stim/12_pa_hybrid_+60.wav,,,,,4,5,57,12,right,0.60179901123,2016_Feb_07_1617,60.1055568532,beat_2AFC,001,vc,
stim/00_pa_hybrid_-60.wav,,,,,4,6,58,0,left,0.433620929718,2016_Feb_07_1617,60.1055568532,beat_2AFC,001,vc,
stim/04_pa_hybrid_-20.wav,,,,,4,7,59,4,left,0.735081911087,2016_Feb_07_1617,60.1055568532,beat_2AFC,001,vc,
stim/06_pa_hybrid_+00.wav,,,,,4,8,60,6,left,0.587076187134,2016_Feb_07_1617,60.1055568532,beat_2AFC,001,vc,
stim/09_pa_hybrid_+30.wav,,,,,4,9,61,9,right,0.437777996063,2016_Feb_07_1617,60.1055568532,beat_2AFC,001,vc,
stim/11_pa_hybrid_+50.wav,,,,,4,10,62,11,right,0.513774871826,2016_Feb_07_1617,60.1055568532,beat_2AFC,001,vc,
stim/03_pa_hybrid_-30.wav,,,,,4,11,63,3,left,0.583734989166,2016_Feb_07_1617,60.1055568532,beat_2AFC,001,vc,
stim/08_pa_hybrid_+20.wav,,,,,4,12,64,8,right,0.487051010132,2016_Feb_07_1617,60.1055568532,beat_2AFC,001,vc,
